# Statistical Thermodynamics
# Computation done on 11-Feb-2020 23:54:14
# Species OH(X)
# Standard state T =    2.98150e+02 (K) P =    1.01325e+05 (Pa)
# C_P           2.91023e+01 (J/K mol)
# H             3.73000e+04 (J/mol)
# S             1.83998e+02 (J/K mol)
# C_P/R         3.50020e+00
# H/RT          1.50467e+01
# S/R           2.21299e+01
#     T            C_P/R           H/RT            S/R
   2.00000e+02,    3.50044e+00,    2.07130e+01,    2.07323e+01
   2.10000e+02,    3.50040e+00,    1.98934e+01,    2.09031e+01
   2.20000e+02,    3.50036e+00,    1.91482e+01,    2.10659e+01
   2.30000e+02,    3.50033e+00,    1.84679e+01,    2.12215e+01
   2.40000e+02,    3.50030e+00,    1.78443e+01,    2.13705e+01
   2.50000e+02,    3.50028e+00,    1.72705e+01,    2.15134e+01
   2.60000e+02,    3.50025e+00,    1.67409e+01,    2.16507e+01
   2.70000e+02,    3.50024e+00,    1.62505e+01,    2.17828e+01
   2.80000e+02,    3.50022e+00,    1.57951e+01,    2.19100e+01
   2.90000e+02,    3.50021e+00,    1.53712e+01,    2.20329e+01
   3.00000e+02,    3.50020e+00,    1.49755e+01,    2.21515e+01
   3.10000e+02,    3.50019e+00,    1.46053e+01,    2.22663e+01
   3.20000e+02,    3.50019e+00,    1.42582e+01,    2.23774e+01
   3.30000e+02,    3.50020e+00,    1.39322e+01,    2.24851e+01
   3.40000e+02,    3.50021e+00,    1.36254e+01,    2.25896e+01
   3.50000e+02,    3.50023e+00,    1.33361e+01,    2.26911e+01
   3.60000e+02,    3.50026e+00,    1.30629e+01,    2.27897e+01
   3.70000e+02,    3.50031e+00,    1.28045e+01,    2.28856e+01
   3.80000e+02,    3.50037e+00,    1.25596e+01,    2.29790e+01
   3.90000e+02,    3.50045e+00,    1.23273e+01,    2.30699e+01
   4.00000e+02,    3.50056e+00,    1.21067e+01,    2.31585e+01
   4.10000e+02,    3.50069e+00,    1.18968e+01,    2.32449e+01
   4.20000e+02,    3.50085e+00,    1.16969e+01,    2.33293e+01
   4.30000e+02,    3.50105e+00,    1.15062e+01,    2.34117e+01
   4.40000e+02,    3.50129e+00,    1.13243e+01,    2.34922e+01
   4.50000e+02,    3.50158e+00,    1.11505e+01,    2.35709e+01
   4.60000e+02,    3.50191e+00,    1.09842e+01,    2.36478e+01
   4.70000e+02,    3.50230e+00,    1.08250e+01,    2.37231e+01
   4.80000e+02,    3.50275e+00,    1.06725e+01,    2.37969e+01
   4.90000e+02,    3.50327e+00,    1.05261e+01,    2.38691e+01
   5.00000e+02,    3.50386e+00,    1.03857e+01,    2.39399e+01
   5.10000e+02,    3.50452e+00,    1.02508e+01,    2.40093e+01
   5.20000e+02,    3.50527e+00,    1.01210e+01,    2.40773e+01
   5.30000e+02,    3.50610e+00,    9.99621e+00,    2.41441e+01
   5.40000e+02,    3.50702e+00,    9.87603e+00,    2.42097e+01
   5.50000e+02,    3.50803e+00,    9.76024e+00,    2.42740e+01
   5.60000e+02,    3.50915e+00,    9.64860e+00,    2.43372e+01
   5.70000e+02,    3.51036e+00,    9.54090e+00,    2.43994e+01
   5.80000e+02,    3.51168e+00,    9.43694e+00,    2.44604e+01
   5.90000e+02,    3.51311e+00,    9.33652e+00,    2.45205e+01
   6.00000e+02,    3.51465e+00,    9.23948e+00,    2.45795e+01
   6.10000e+02,    3.51631e+00,    9.14564e+00,    2.46376e+01
   6.20000e+02,    3.51808e+00,    9.05486e+00,    2.46948e+01
   6.30000e+02,    3.51996e+00,    8.96699e+00,    2.47511e+01
   6.40000e+02,    3.52197e+00,    8.88190e+00,    2.48066e+01
   6.50000e+02,    3.52410e+00,    8.79945e+00,    2.48612e+01
   6.60000e+02,    3.52634e+00,    8.71954e+00,    2.49150e+01
   6.70000e+02,    3.52871e+00,    8.64205e+00,    2.49681e+01
   6.80000e+02,    3.53120e+00,    8.56687e+00,    2.50204e+01
   6.90000e+02,    3.53381e+00,    8.49391e+00,    2.50719e+01
   7.00000e+02,    3.53655e+00,    8.42307e+00,    2.51228e+01
   7.10000e+02,    3.53940e+00,    8.35426e+00,    2.51730e+01
   7.20000e+02,    3.54237e+00,    8.28741e+00,    2.52225e+01
   7.30000e+02,    3.54545e+00,    8.22243e+00,    2.52714e+01
   7.40000e+02,    3.54865e+00,    8.15925e+00,    2.53197e+01
   7.50000e+02,    3.55197e+00,    8.09780e+00,    2.53673e+01
   7.60000e+02,    3.55540e+00,    8.03801e+00,    2.54144e+01
   7.70000e+02,    3.55894e+00,    7.97981e+00,    2.54609e+01
   7.80000e+02,    3.56258e+00,    7.92316e+00,    2.55068e+01
   7.90000e+02,    3.56634e+00,    7.86798e+00,    2.55522e+01
   8.00000e+02,    3.57019e+00,    7.81424e+00,    2.55971e+01
   8.10000e+02,    3.57414e+00,    7.76187e+00,    2.56415e+01
   8.20000e+02,    3.57819e+00,    7.71082e+00,    2.56854e+01
   8.30000e+02,    3.58234e+00,    7.66106e+00,    2.57288e+01
   8.40000e+02,    3.58657e+00,    7.61252e+00,    2.57717e+01
   8.50000e+02,    3.59090e+00,    7.56519e+00,    2.58142e+01
   8.60000e+02,    3.59531e+00,    7.51900e+00,    2.58562e+01
   8.70000e+02,    3.59980e+00,    7.47392e+00,    2.58978e+01
   8.80000e+02,    3.60437e+00,    7.42993e+00,    2.59389e+01
   8.90000e+02,    3.60901e+00,    7.38697e+00,    2.59797e+01
   9.00000e+02,    3.61373e+00,    7.34502e+00,    2.60201e+01
   9.10000e+02,    3.61852e+00,    7.30404e+00,    2.60600e+01
   9.20000e+02,    3.62337e+00,    7.26401e+00,    2.60996e+01
   9.30000e+02,    3.62828e+00,    7.22489e+00,    2.61388e+01
   9.40000e+02,    3.63326e+00,    7.18665e+00,    2.61776e+01
   9.50000e+02,    3.63829e+00,    7.14927e+00,    2.62161e+01
   9.60000e+02,    3.64337e+00,    7.11273e+00,    2.62542e+01
   9.70000e+02,    3.64851e+00,    7.07699e+00,    2.62920e+01
   9.80000e+02,    3.65369e+00,    7.04203e+00,    2.63294e+01
   9.90000e+02,    3.65891e+00,    7.00783e+00,    2.63666e+01
   1.00000e+03,    3.66418e+00,    6.97437e+00,    2.64034e+01
   1.01000e+03,    3.66948e+00,    6.94162e+00,    2.64398e+01
   1.02000e+03,    3.67482e+00,    6.90956e+00,    2.64760e+01
   1.03000e+03,    3.68020e+00,    6.87819e+00,    2.65119e+01
   1.04000e+03,    3.68560e+00,    6.84746e+00,    2.65475e+01
   1.05000e+03,    3.69103e+00,    6.81737e+00,    2.65828e+01
   1.06000e+03,    3.69648e+00,    6.78791e+00,    2.66178e+01
   1.07000e+03,    3.70196e+00,    6.75904e+00,    2.66525e+01
   1.08000e+03,    3.70746e+00,    6.73076e+00,    2.66870e+01
   1.09000e+03,    3.71297e+00,    6.70305e+00,    2.67212e+01
   1.10000e+03,    3.71850e+00,    6.67589e+00,    2.67551e+01
   1.11000e+03,    3.72405e+00,    6.64927e+00,    2.67888e+01
   1.12000e+03,    3.72960e+00,    6.62318e+00,    2.68222e+01
   1.13000e+03,    3.73516e+00,    6.59760e+00,    2.68554e+01
   1.14000e+03,    3.74073e+00,    6.57251e+00,    2.68883e+01
   1.15000e+03,    3.74630e+00,    6.54791e+00,    2.69210e+01
   1.16000e+03,    3.75188e+00,    6.52378e+00,    2.69535e+01
   1.17000e+03,    3.75746e+00,    6.50012e+00,    2.69857e+01
   1.18000e+03,    3.76303e+00,    6.47690e+00,    2.70177e+01
   1.19000e+03,    3.76861e+00,    6.45412e+00,    2.70495e+01
   1.20000e+03,    3.77418e+00,    6.43176e+00,    2.70811e+01
   1.21000e+03,    3.77974e+00,    6.40982e+00,    2.71124e+01
   1.22000e+03,    3.78530e+00,    6.38828e+00,    2.71435e+01
   1.23000e+03,    3.79085e+00,    6.36714e+00,    2.71745e+01
   1.24000e+03,    3.79638e+00,    6.34639e+00,    2.72052e+01
   1.25000e+03,    3.80191e+00,    6.32601e+00,    2.72357e+01
   1.26000e+03,    3.80742e+00,    6.30600e+00,    2.72660e+01
   1.27000e+03,    3.81292e+00,    6.28635e+00,    2.72961e+01
   1.28000e+03,    3.81841e+00,    6.26705e+00,    2.73261e+01
   1.29000e+03,    3.82388e+00,    6.24809e+00,    2.73558e+01
   1.30000e+03,    3.82933e+00,    6.22946e+00,    2.73853e+01
   1.31000e+03,    3.83476e+00,    6.21116e+00,    2.74147e+01
   1.32000e+03,    3.84018e+00,    6.19318e+00,    2.74439e+01
   1.33000e+03,    3.84557e+00,    6.17550e+00,    2.74729e+01
   1.34000e+03,    3.85094e+00,    6.15814e+00,    2.75017e+01
   1.35000e+03,    3.85630e+00,    6.14107e+00,    2.75304e+01
   1.36000e+03,    3.86163e+00,    6.12429e+00,    2.75588e+01
   1.37000e+03,    3.86693e+00,    6.10779e+00,    2.75872e+01
   1.38000e+03,    3.87221e+00,    6.09157e+00,    2.76153e+01
   1.39000e+03,    3.87747e+00,    6.07562e+00,    2.76433e+01
   1.40000e+03,    3.88270e+00,    6.05994e+00,    2.76711e+01
   1.41000e+03,    3.88791e+00,    6.04452e+00,    2.76987e+01
   1.42000e+03,    3.89309e+00,    6.02935e+00,    2.77262e+01
   1.43000e+03,    3.89825e+00,    6.01443e+00,    2.77536e+01
   1.44000e+03,    3.90337e+00,    5.99975e+00,    2.77808e+01
   1.45000e+03,    3.90847e+00,    5.98531e+00,    2.78078e+01
   1.46000e+03,    3.91354e+00,    5.97110e+00,    2.78347e+01
   1.47000e+03,    3.91858e+00,    5.95712e+00,    2.78614e+01
   1.48000e+03,    3.92360e+00,    5.94337e+00,    2.78880e+01
   1.49000e+03,    3.92858e+00,    5.92983e+00,    2.79144e+01
   1.50000e+03,    3.93354e+00,    5.91650e+00,    2.79407e+01
   1.51000e+03,    3.93846e+00,    5.90339e+00,    2.79669e+01
   1.52000e+03,    3.94336e+00,    5.89047e+00,    2.79929e+01
   1.53000e+03,    3.94822e+00,    5.87776e+00,    2.80188e+01
   1.54000e+03,    3.95306e+00,    5.86525e+00,    2.80445e+01
   1.55000e+03,    3.95786e+00,    5.85293e+00,    2.80701e+01
   1.56000e+03,    3.96263e+00,    5.84080e+00,    2.80956e+01
   1.57000e+03,    3.96738e+00,    5.82885e+00,    2.81209e+01
   1.58000e+03,    3.97209e+00,    5.81708e+00,    2.81461e+01
   1.59000e+03,    3.97677e+00,    5.80549e+00,    2.81712e+01
   1.60000e+03,    3.98142e+00,    5.79408e+00,    2.81961e+01
   1.61000e+03,    3.98604e+00,    5.78283e+00,    2.82209e+01
   1.62000e+03,    3.99063e+00,    5.77176e+00,    2.82456e+01
   1.63000e+03,    3.99518e+00,    5.76084e+00,    2.82702e+01
   1.64000e+03,    3.99971e+00,    5.75009e+00,    2.82947e+01
   1.65000e+03,    4.00420e+00,    5.73950e+00,    2.83190e+01
   1.66000e+03,    4.00866e+00,    5.72906e+00,    2.83432e+01
   1.67000e+03,    4.01309e+00,    5.71877e+00,    2.83673e+01
   1.68000e+03,    4.01749e+00,    5.70863e+00,    2.83913e+01
   1.69000e+03,    4.02186e+00,    5.69863e+00,    2.84151e+01
   1.70000e+03,    4.02620e+00,    5.68878e+00,    2.84389e+01
   1.71000e+03,    4.03051e+00,    5.67907e+00,    2.84625e+01
   1.72000e+03,    4.03478e+00,    5.66950e+00,    2.84860e+01
   1.73000e+03,    4.03903e+00,    5.66006e+00,    2.85094e+01
   1.74000e+03,    4.04324e+00,    5.65076e+00,    2.85327e+01
   1.75000e+03,    4.04743e+00,    5.64159e+00,    2.85559e+01
   1.76000e+03,    4.05158e+00,    5.63254e+00,    2.85790e+01
   1.77000e+03,    4.05570e+00,    5.62362e+00,    2.86019e+01
   1.78000e+03,    4.05979e+00,    5.61482e+00,    2.86248e+01
   1.79000e+03,    4.06386e+00,    5.60615e+00,    2.86475e+01
   1.80000e+03,    4.06789e+00,    5.59759e+00,    2.86702e+01
   1.81000e+03,    4.07189e+00,    5.58915e+00,    2.86927e+01
   1.82000e+03,    4.07586e+00,    5.58082e+00,    2.87152e+01
   1.83000e+03,    4.07981e+00,    5.57261e+00,    2.87375e+01
   1.84000e+03,    4.08372e+00,    5.56451e+00,    2.87598e+01
   1.85000e+03,    4.08761e+00,    5.55652e+00,    2.87819e+01
   1.86000e+03,    4.09146e+00,    5.54863e+00,    2.88040e+01
   1.87000e+03,    4.09529e+00,    5.54085e+00,    2.88259e+01
   1.88000e+03,    4.09909e+00,    5.53317e+00,    2.88478e+01
   1.89000e+03,    4.10286e+00,    5.52559e+00,    2.88695e+01
   1.90000e+03,    4.10660e+00,    5.51811e+00,    2.88912e+01
   1.91000e+03,    4.11031e+00,    5.51073e+00,    2.89127e+01
   1.92000e+03,    4.11400e+00,    5.50345e+00,    2.89342e+01
   1.93000e+03,    4.11766e+00,    5.49626e+00,    2.89556e+01
   1.94000e+03,    4.12129e+00,    5.48916e+00,    2.89769e+01
   1.95000e+03,    4.12489e+00,    5.48215e+00,    2.89981e+01
   1.96000e+03,    4.12847e+00,    5.47524e+00,    2.90192e+01
   1.97000e+03,    4.13202e+00,    5.46841e+00,    2.90402e+01
   1.98000e+03,    4.13554e+00,    5.46167e+00,    2.90611e+01
   1.99000e+03,    4.13903e+00,    5.45502e+00,    2.90820e+01
   2.00000e+03,    4.14250e+00,    5.44844e+00,    2.91027e+01
   2.01000e+03,    4.14595e+00,    5.44196e+00,    2.91234e+01
   2.02000e+03,    4.14937e+00,    5.43555e+00,    2.91440e+01
   2.03000e+03,    4.15276e+00,    5.42922e+00,    2.91645e+01
   2.04000e+03,    4.15613e+00,    5.42297e+00,    2.91849e+01
   2.05000e+03,    4.15947e+00,    5.41680e+00,    2.92052e+01
   2.06000e+03,    4.16278e+00,    5.41071e+00,    2.92255e+01
   2.07000e+03,    4.16608e+00,    5.40468e+00,    2.92457e+01
   2.08000e+03,    4.16934e+00,    5.39874e+00,    2.92657e+01
   2.09000e+03,    4.17259e+00,    5.39286e+00,    2.92857e+01
   2.10000e+03,    4.17581e+00,    5.38706e+00,    2.93057e+01
   2.11000e+03,    4.17900e+00,    5.38133e+00,    2.93255e+01
   2.12000e+03,    4.18217e+00,    5.37566e+00,    2.93453e+01
   2.13000e+03,    4.18532e+00,    5.37007e+00,    2.93650e+01
   2.14000e+03,    4.18845e+00,    5.36454e+00,    2.93846e+01
   2.15000e+03,    4.19155e+00,    5.35908e+00,    2.94041e+01
   2.16000e+03,    4.19463e+00,    5.35368e+00,    2.94236e+01
   2.17000e+03,    4.19768e+00,    5.34834e+00,    2.94430e+01
   2.18000e+03,    4.20072e+00,    5.34307e+00,    2.94623e+01
   2.19000e+03,    4.20373e+00,    5.33786e+00,    2.94815e+01
   2.20000e+03,    4.20672e+00,    5.33271e+00,    2.95007e+01
   2.21000e+03,    4.20969e+00,    5.32763e+00,    2.95197e+01
   2.22000e+03,    4.21263e+00,    5.32260e+00,    2.95387e+01
   2.23000e+03,    4.21556e+00,    5.31763e+00,    2.95577e+01
   2.24000e+03,    4.21846e+00,    5.31271e+00,    2.95766e+01
   2.25000e+03,    4.22135e+00,    5.30786e+00,    2.95954e+01
   2.26000e+03,    4.22421e+00,    5.30305e+00,    2.96141e+01
   2.27000e+03,    4.22705e+00,    5.29831e+00,    2.96327e+01
   2.28000e+03,    4.22987e+00,    5.29362e+00,    2.96513e+01
   2.29000e+03,    4.23268e+00,    5.28898e+00,    2.96698e+01
   2.30000e+03,    4.23546e+00,    5.28439e+00,    2.96883e+01
   2.31000e+03,    4.23822e+00,    5.27986e+00,    2.97067e+01
   2.32000e+03,    4.24096e+00,    5.27537e+00,    2.97250e+01
   2.33000e+03,    4.24369e+00,    5.27094e+00,    2.97432e+01
   2.34000e+03,    4.24639e+00,    5.26655e+00,    2.97614e+01
   2.35000e+03,    4.24908e+00,    5.26222e+00,    2.97795e+01
   2.36000e+03,    4.25174e+00,    5.25793e+00,    2.97976e+01
   2.37000e+03,    4.25439e+00,    5.25369e+00,    2.98156e+01
   2.38000e+03,    4.25702e+00,    5.24950e+00,    2.98335e+01
   2.39000e+03,    4.25963e+00,    5.24535e+00,    2.98513e+01
   2.40000e+03,    4.26223e+00,    5.24125e+00,    2.98691e+01
   2.41000e+03,    4.26480e+00,    5.23719e+00,    2.98868e+01
   2.42000e+03,    4.26736e+00,    5.23318e+00,    2.99045e+01
   2.43000e+03,    4.26990e+00,    5.22921e+00,    2.99221e+01
   2.44000e+03,    4.27243e+00,    5.22528e+00,    2.99397e+01
   2.45000e+03,    4.27494e+00,    5.22140e+00,    2.99571e+01
   2.46000e+03,    4.27743e+00,    5.21756e+00,    2.99746e+01
   2.47000e+03,    4.27990e+00,    5.21376e+00,    2.99919e+01
   2.48000e+03,    4.28236e+00,    5.20999e+00,    3.00092e+01
   2.49000e+03,    4.28480e+00,    5.20627e+00,    3.00264e+01
   2.50000e+03,    4.28722e+00,    5.20259e+00,    3.00436e+01
   2.51000e+03,    4.28963e+00,    5.19895e+00,    3.00607e+01
   2.52000e+03,    4.29202e+00,    5.19535e+00,    3.00778e+01
   2.53000e+03,    4.29440e+00,    5.19178e+00,    3.00948e+01
   2.54000e+03,    4.29676e+00,    5.18825e+00,    3.01118e+01
   2.55000e+03,    4.29911e+00,    5.18476e+00,    3.01286e+01
   2.56000e+03,    4.30144e+00,    5.18131e+00,    3.01455e+01
   2.57000e+03,    4.30376e+00,    5.17789e+00,    3.01622e+01
   2.58000e+03,    4.30606e+00,    5.17450e+00,    3.01790e+01
   2.59000e+03,    4.30835e+00,    5.17116e+00,    3.01956e+01
   2.60000e+03,    4.31062e+00,    5.16784e+00,    3.02122e+01
   2.61000e+03,    4.31288e+00,    5.16456e+00,    3.02288e+01
   2.62000e+03,    4.31512e+00,    5.16132e+00,    3.02453e+01
   2.63000e+03,    4.31735e+00,    5.15810e+00,    3.02617e+01
   2.64000e+03,    4.31957e+00,    5.15492e+00,    3.02781e+01
   2.65000e+03,    4.32177e+00,    5.15177e+00,    3.02944e+01
   2.66000e+03,    4.32396e+00,    5.14866e+00,    3.03107e+01
   2.67000e+03,    4.32614e+00,    5.14557e+00,    3.03270e+01
   2.68000e+03,    4.32830e+00,    5.14252e+00,    3.03431e+01
   2.69000e+03,    4.33045e+00,    5.13950e+00,    3.03593e+01
   2.70000e+03,    4.33258e+00,    5.13650e+00,    3.03753e+01
   2.71000e+03,    4.33471e+00,    5.13354e+00,    3.03914e+01
   2.72000e+03,    4.33682e+00,    5.13061e+00,    3.04073e+01
   2.73000e+03,    4.33892e+00,    5.12770e+00,    3.04232e+01
   2.74000e+03,    4.34100e+00,    5.12483e+00,    3.04391e+01
   2.75000e+03,    4.34308e+00,    5.12198e+00,    3.04549e+01
   2.76000e+03,    4.34514e+00,    5.11916e+00,    3.04707e+01
   2.77000e+03,    4.34719e+00,    5.11637e+00,    3.04864e+01
   2.78000e+03,    4.34922e+00,    5.11361e+00,    3.05021e+01
   2.79000e+03,    4.35125e+00,    5.11087e+00,    3.05177e+01
   2.80000e+03,    4.35326e+00,    5.10817e+00,    3.05333e+01
   2.81000e+03,    4.35527e+00,    5.10548e+00,    3.05488e+01
   2.82000e+03,    4.35726e+00,    5.10283e+00,    3.05643e+01
   2.83000e+03,    4.35924e+00,    5.10019e+00,    3.05797e+01
   2.84000e+03,    4.36121e+00,    5.09759e+00,    3.05951e+01
   2.85000e+03,    4.36316e+00,    5.09501e+00,    3.06104e+01
   2.86000e+03,    4.36511e+00,    5.09245e+00,    3.06257e+01
   2.87000e+03,    4.36705e+00,    5.08992e+00,    3.06409e+01
   2.88000e+03,    4.36897e+00,    5.08742e+00,    3.06561e+01
   2.89000e+03,    4.37089e+00,    5.08493e+00,    3.06713e+01
   2.90000e+03,    4.37279e+00,    5.08247e+00,    3.06864e+01
   2.91000e+03,    4.37469e+00,    5.08004e+00,    3.07014e+01
   2.92000e+03,    4.37657e+00,    5.07763e+00,    3.07164e+01
   2.93000e+03,    4.37844e+00,    5.07524e+00,    3.07314e+01
   2.94000e+03,    4.38031e+00,    5.07287e+00,    3.07463e+01
   2.95000e+03,    4.38216e+00,    5.07053e+00,    3.07612e+01
   2.96000e+03,    4.38400e+00,    5.06820e+00,    3.07760e+01
   2.97000e+03,    4.38584e+00,    5.06590e+00,    3.07908e+01
   2.98000e+03,    4.38766e+00,    5.06362e+00,    3.08056e+01
   2.99000e+03,    4.38948e+00,    5.06137e+00,    3.08203e+01
   3.00000e+03,    4.39128e+00,    5.05913e+00,    3.08349e+01
   3.01000e+03,    4.39308e+00,    5.05691e+00,    3.08496e+01
   3.02000e+03,    4.39487e+00,    5.05472e+00,    3.08641e+01
   3.03000e+03,    4.39664e+00,    5.05254e+00,    3.08787e+01
   3.04000e+03,    4.39841e+00,    5.05039e+00,    3.08932e+01
   3.05000e+03,    4.40017e+00,    5.04825e+00,    3.09076e+01
   3.06000e+03,    4.40193e+00,    5.04614e+00,    3.09220e+01
   3.07000e+03,    4.40367e+00,    5.04404e+00,    3.09364e+01
   3.08000e+03,    4.40540e+00,    5.04197e+00,    3.09507e+01
   3.09000e+03,    4.40713e+00,    5.03991e+00,    3.09650e+01
   3.10000e+03,    4.40884e+00,    5.03787e+00,    3.09792e+01
   3.11000e+03,    4.41055e+00,    5.03585e+00,    3.09934e+01
   3.12000e+03,    4.41225e+00,    5.03385e+00,    3.10076e+01
   3.13000e+03,    4.41394e+00,    5.03187e+00,    3.10217e+01
   3.14000e+03,    4.41563e+00,    5.02990e+00,    3.10358e+01
   3.15000e+03,    4.41730e+00,    5.02795e+00,    3.10498e+01
   3.16000e+03,    4.41897e+00,    5.02602e+00,    3.10638e+01
   3.17000e+03,    4.42063e+00,    5.02411e+00,    3.10778e+01
   3.18000e+03,    4.42228e+00,    5.02222e+00,    3.10917e+01
   3.19000e+03,    4.42393e+00,    5.02034e+00,    3.11056e+01
   3.20000e+03,    4.42556e+00,    5.01848e+00,    3.11195e+01
   3.21000e+03,    4.42719e+00,    5.01663e+00,    3.11333e+01
   3.22000e+03,    4.42881e+00,    5.01480e+00,    3.11470e+01
   3.23000e+03,    4.43043e+00,    5.01299e+00,    3.11608e+01
   3.24000e+03,    4.43203e+00,    5.01120e+00,    3.11745e+01
   3.25000e+03,    4.43363e+00,    5.00942e+00,    3.11881e+01
   3.26000e+03,    4.43522e+00,    5.00765e+00,    3.12018e+01
   3.27000e+03,    4.43681e+00,    5.00591e+00,    3.12153e+01
   3.28000e+03,    4.43838e+00,    5.00417e+00,    3.12289e+01
   3.29000e+03,    4.43995e+00,    5.00246e+00,    3.12424e+01
   3.30000e+03,    4.44152e+00,    5.00075e+00,    3.12559e+01
   3.31000e+03,    4.44307e+00,    4.99907e+00,    3.12693e+01
   3.32000e+03,    4.44462e+00,    4.99739e+00,    3.12827e+01
   3.33000e+03,    4.44616e+00,    4.99574e+00,    3.12961e+01
   3.34000e+03,    4.44770e+00,    4.99409e+00,    3.13094e+01
   3.35000e+03,    4.44923e+00,    4.99246e+00,    3.13227e+01
   3.36000e+03,    4.45075e+00,    4.99085e+00,    3.13360e+01
   3.37000e+03,    4.45226e+00,    4.98925e+00,    3.13492e+01
   3.38000e+03,    4.45377e+00,    4.98766e+00,    3.13624e+01
   3.39000e+03,    4.45527e+00,    4.98609e+00,    3.13756e+01
   3.40000e+03,    4.45677e+00,    4.98453e+00,    3.13887e+01
   3.41000e+03,    4.45826e+00,    4.98299e+00,    3.14018e+01
   3.42000e+03,    4.45974e+00,    4.98145e+00,    3.14149e+01
   3.43000e+03,    4.46121e+00,    4.97993e+00,    3.14279e+01
   3.44000e+03,    4.46268e+00,    4.97843e+00,    3.14409e+01
   3.45000e+03,    4.46415e+00,    4.97694e+00,    3.14538e+01
   3.46000e+03,    4.46560e+00,    4.97546e+00,    3.14667e+01
   3.47000e+03,    4.46705e+00,    4.97399e+00,    3.14796e+01
   3.48000e+03,    4.46850e+00,    4.97253e+00,    3.14925e+01
   3.49000e+03,    4.46994e+00,    4.97109e+00,    3.15053e+01
   3.50000e+03,    4.47137e+00,    4.96966e+00,    3.15181e+01
   3.51000e+03,    4.47280e+00,    4.96824e+00,    3.15309e+01
   3.52000e+03,    4.47422e+00,    4.96684e+00,    3.15436e+01
   3.53000e+03,    4.47563e+00,    4.96545e+00,    3.15563e+01
   3.54000e+03,    4.47704e+00,    4.96406e+00,    3.15690e+01
   3.55000e+03,    4.47844e+00,    4.96269e+00,    3.15816e+01
   3.56000e+03,    4.47984e+00,    4.96134e+00,    3.15942e+01
   3.57000e+03,    4.48123e+00,    4.95999e+00,    3.16068e+01
   3.58000e+03,    4.48261e+00,    4.95865e+00,    3.16193e+01
   3.59000e+03,    4.48399e+00,    4.95733e+00,    3.16318e+01
   3.60000e+03,    4.48536e+00,    4.95602e+00,    3.16443e+01
   3.61000e+03,    4.48673e+00,    4.95471e+00,    3.16567e+01
   3.62000e+03,    4.48809e+00,    4.95342e+00,    3.16691e+01
   3.63000e+03,    4.48945e+00,    4.95214e+00,    3.16815e+01
   3.64000e+03,    4.49080e+00,    4.95087e+00,    3.16939e+01
   3.65000e+03,    4.49214e+00,    4.94962e+00,    3.17062e+01
   3.66000e+03,    4.49348e+00,    4.94837e+00,    3.17185e+01
   3.67000e+03,    4.49481e+00,    4.94713e+00,    3.17307e+01
   3.68000e+03,    4.49614e+00,    4.94590e+00,    3.17430e+01
   3.69000e+03,    4.49746e+00,    4.94469e+00,    3.17552e+01
   3.70000e+03,    4.49878e+00,    4.94348e+00,    3.17674e+01
   3.71000e+03,    4.50009e+00,    4.94228e+00,    3.17795e+01
   3.72000e+03,    4.50139e+00,    4.94109e+00,    3.17916e+01
   3.73000e+03,    4.50269e+00,    4.93992e+00,    3.18037e+01
   3.74000e+03,    4.50398e+00,    4.93875e+00,    3.18158e+01
   3.75000e+03,    4.50527e+00,    4.93759e+00,    3.18278e+01
   3.76000e+03,    4.50656e+00,    4.93644e+00,    3.18398e+01
   3.77000e+03,    4.50783e+00,    4.93531e+00,    3.18518e+01
   3.78000e+03,    4.50910e+00,    4.93418e+00,    3.18637e+01
   3.79000e+03,    4.51037e+00,    4.93306e+00,    3.18756e+01
   3.80000e+03,    4.51163e+00,    4.93195e+00,    3.18875e+01
   3.81000e+03,    4.51289e+00,    4.93084e+00,    3.18994e+01
   3.82000e+03,    4.51414e+00,    4.92975e+00,    3.19112e+01
   3.83000e+03,    4.51538e+00,    4.92867e+00,    3.19230e+01
   3.84000e+03,    4.51662e+00,    4.92759e+00,    3.19348e+01
   3.85000e+03,    4.51785e+00,    4.92653e+00,    3.19465e+01
   3.86000e+03,    4.51908e+00,    4.92547e+00,    3.19582e+01
   3.87000e+03,    4.52031e+00,    4.92442e+00,    3.19699e+01
   3.88000e+03,    4.52152e+00,    4.92338e+00,    3.19816e+01
   3.89000e+03,    4.52273e+00,    4.92235e+00,    3.19932e+01
   3.90000e+03,    4.52394e+00,    4.92133e+00,    3.20048e+01
   3.91000e+03,    4.52514e+00,    4.92031e+00,    3.20164e+01
   3.92000e+03,    4.52634e+00,    4.91931e+00,    3.20280e+01
   3.93000e+03,    4.52753e+00,    4.91831e+00,    3.20395e+01
   3.94000e+03,    4.52871e+00,    4.91732e+00,    3.20510e+01
   3.95000e+03,    4.52989e+00,    4.91634e+00,    3.20625e+01
   3.96000e+03,    4.53107e+00,    4.91536e+00,    3.20740e+01
   3.97000e+03,    4.53224e+00,    4.91439e+00,    3.20854e+01
   3.98000e+03,    4.53340e+00,    4.91344e+00,    3.20968e+01
   3.99000e+03,    4.53456e+00,    4.91249e+00,    3.21082e+01
   4.00000e+03,    4.53571e+00,    4.91154e+00,    3.21195e+01
   4.01000e+03,    4.53686e+00,    4.91061e+00,    3.21309e+01
   4.02000e+03,    4.53800e+00,    4.90968e+00,    3.21422e+01
   4.03000e+03,    4.53913e+00,    4.90876e+00,    3.21534e+01
   4.04000e+03,    4.54026e+00,    4.90784e+00,    3.21647e+01
   4.05000e+03,    4.54139e+00,    4.90694e+00,    3.21759e+01
   4.06000e+03,    4.54251e+00,    4.90604e+00,    3.21871e+01
   4.07000e+03,    4.54362e+00,    4.90515e+00,    3.21983e+01
   4.08000e+03,    4.54473e+00,    4.90426e+00,    3.22094e+01
   4.09000e+03,    4.54583e+00,    4.90338e+00,    3.22206e+01
   4.10000e+03,    4.54693e+00,    4.90251e+00,    3.22317e+01
   4.11000e+03,    4.54802e+00,    4.90165e+00,    3.22428e+01
   4.12000e+03,    4.54911e+00,    4.90079e+00,    3.22538e+01
   4.13000e+03,    4.55019e+00,    4.89994e+00,    3.22648e+01
   4.14000e+03,    4.55126e+00,    4.89910e+00,    3.22758e+01
   4.15000e+03,    4.55233e+00,    4.89826e+00,    3.22868e+01
   4.16000e+03,    4.55340e+00,    4.89743e+00,    3.22978e+01
   4.17000e+03,    4.55446e+00,    4.89661e+00,    3.23087e+01
   4.18000e+03,    4.55551e+00,    4.89579e+00,    3.23196e+01
   4.19000e+03,    4.55656e+00,    4.89498e+00,    3.23305e+01
   4.20000e+03,    4.55760e+00,    4.89417e+00,    3.23414e+01
   4.21000e+03,    4.55863e+00,    4.89338e+00,    3.23522e+01
   4.22000e+03,    4.55966e+00,    4.89258e+00,    3.23630e+01
   4.23000e+03,    4.56069e+00,    4.89180e+00,    3.23738e+01
   4.24000e+03,    4.56171e+00,    4.89102e+00,    3.23846e+01
   4.25000e+03,    4.56272e+00,    4.89025e+00,    3.23953e+01
   4.26000e+03,    4.56373e+00,    4.88948e+00,    3.24061e+01
   4.27000e+03,    4.56473e+00,    4.88872e+00,    3.24168e+01
   4.28000e+03,    4.56572e+00,    4.88796e+00,    3.24274e+01
   4.29000e+03,    4.56671e+00,    4.88721e+00,    3.24381e+01
   4.30000e+03,    4.56770e+00,    4.88647e+00,    3.24487e+01
   4.31000e+03,    4.56867e+00,    4.88573e+00,    3.24593e+01
   4.32000e+03,    4.56965e+00,    4.88499e+00,    3.24699e+01
   4.33000e+03,    4.57061e+00,    4.88427e+00,    3.24805e+01
   4.34000e+03,    4.57157e+00,    4.88355e+00,    3.24910e+01
   4.35000e+03,    4.57253e+00,    4.88283e+00,    3.25016e+01
   4.36000e+03,    4.57347e+00,    4.88212e+00,    3.25121e+01
   4.37000e+03,    4.57442e+00,    4.88141e+00,    3.25225e+01
   4.38000e+03,    4.57535e+00,    4.88071e+00,    3.25330e+01
   4.39000e+03,    4.57628e+00,    4.88002e+00,    3.25434e+01
   4.40000e+03,    4.57721e+00,    4.87933e+00,    3.25539e+01
   4.41000e+03,    4.57812e+00,    4.87865e+00,    3.25642e+01
   4.42000e+03,    4.57904e+00,    4.87797e+00,    3.25746e+01
   4.43000e+03,    4.57994e+00,    4.87729e+00,    3.25850e+01
   4.44000e+03,    4.58084e+00,    4.87663e+00,    3.25953e+01
   4.45000e+03,    4.58173e+00,    4.87596e+00,    3.26056e+01
   4.46000e+03,    4.58262e+00,    4.87530e+00,    3.26159e+01
   4.47000e+03,    4.58350e+00,    4.87465e+00,    3.26261e+01
   4.48000e+03,    4.58438e+00,    4.87400e+00,    3.26364e+01
   4.49000e+03,    4.58525e+00,    4.87336e+00,    3.26466e+01
   4.50000e+03,    4.58611e+00,    4.87272e+00,    3.26568e+01
   4.51000e+03,    4.58696e+00,    4.87208e+00,    3.26670e+01
   4.52000e+03,    4.58781e+00,    4.87145e+00,    3.26772e+01
   4.53000e+03,    4.58866e+00,    4.87083e+00,    3.26873e+01
   4.54000e+03,    4.58949e+00,    4.87021e+00,    3.26974e+01
   4.55000e+03,    4.59032e+00,    4.86959e+00,    3.27075e+01
   4.56000e+03,    4.59115e+00,    4.86898e+00,    3.27176e+01
   4.57000e+03,    4.59196e+00,    4.86837e+00,    3.27277e+01
   4.58000e+03,    4.59277e+00,    4.86777e+00,    3.27377e+01
   4.59000e+03,    4.59358e+00,    4.86717e+00,    3.27477e+01
   4.60000e+03,    4.59438e+00,    4.86658e+00,    3.27577e+01
   4.61000e+03,    4.59517e+00,    4.86599e+00,    3.27677e+01
   4.62000e+03,    4.59595e+00,    4.86540e+00,    3.27776e+01
   4.63000e+03,    4.59673e+00,    4.86482e+00,    3.27876e+01
   4.64000e+03,    4.59750e+00,    4.86424e+00,    3.27975e+01
   4.65000e+03,    4.59827e+00,    4.86367e+00,    3.28074e+01
   4.66000e+03,    4.59902e+00,    4.86310e+00,    3.28173e+01
   4.67000e+03,    4.59977e+00,    4.86254e+00,    3.28271e+01
   4.68000e+03,    4.60052e+00,    4.86198e+00,    3.28370e+01
   4.69000e+03,    4.60126e+00,    4.86142e+00,    3.28468e+01
   4.70000e+03,    4.60199e+00,    4.86087e+00,    3.28566e+01
   4.71000e+03,    4.60271e+00,    4.86032e+00,    3.28664e+01
   4.72000e+03,    4.60343e+00,    4.85977e+00,    3.28761e+01
   4.73000e+03,    4.60414e+00,    4.85923e+00,    3.28859e+01
   4.74000e+03,    4.60484e+00,    4.85870e+00,    3.28956e+01
   4.75000e+03,    4.60554e+00,    4.85816e+00,    3.29053e+01
   4.76000e+03,    4.60623e+00,    4.85763e+00,    3.29150e+01
   4.77000e+03,    4.60691e+00,    4.85711e+00,    3.29247e+01
   4.78000e+03,    4.60758e+00,    4.85658e+00,    3.29343e+01
   4.79000e+03,    4.60825e+00,    4.85606e+00,    3.29439e+01
   4.80000e+03,    4.60891e+00,    4.85555e+00,    3.29536e+01
   4.81000e+03,    4.60957e+00,    4.85504e+00,    3.29632e+01
   4.82000e+03,    4.61021e+00,    4.85453e+00,    3.29727e+01
   4.83000e+03,    4.61085e+00,    4.85402e+00,    3.29823e+01
   4.84000e+03,    4.61148e+00,    4.85352e+00,    3.29918e+01
   4.85000e+03,    4.61211e+00,    4.85302e+00,    3.30013e+01
   4.86000e+03,    4.61273e+00,    4.85253e+00,    3.30108e+01
   4.87000e+03,    4.61334e+00,    4.85203e+00,    3.30203e+01
   4.88000e+03,    4.61394e+00,    4.85155e+00,    3.30298e+01
   4.89000e+03,    4.61454e+00,    4.85106e+00,    3.30392e+01
   4.90000e+03,    4.61513e+00,    4.85058e+00,    3.30487e+01
   4.91000e+03,    4.61571e+00,    4.85010e+00,    3.30581e+01
   4.92000e+03,    4.61628e+00,    4.84962e+00,    3.30675e+01
   4.93000e+03,    4.61685e+00,    4.84915e+00,    3.30768e+01
   4.94000e+03,    4.61741e+00,    4.84868e+00,    3.30862e+01
   4.95000e+03,    4.61796e+00,    4.84822e+00,    3.30955e+01
   4.96000e+03,    4.61850e+00,    4.84775e+00,    3.31048e+01
   4.97000e+03,    4.61904e+00,    4.84729e+00,    3.31141e+01
   4.98000e+03,    4.61957e+00,    4.84683e+00,    3.31234e+01
   4.99000e+03,    4.62009e+00,    4.84638e+00,    3.31327e+01
   5.00000e+03,    4.62061e+00,    4.84593e+00,    3.31419e+01
   5.01000e+03,    4.62111e+00,    4.84548e+00,    3.31512e+01
   5.02000e+03,    4.62161e+00,    4.84503e+00,    3.31604e+01
   5.03000e+03,    4.62210e+00,    4.84459e+00,    3.31696e+01
   5.04000e+03,    4.62259e+00,    4.84415e+00,    3.31788e+01
   5.05000e+03,    4.62306e+00,    4.84371e+00,    3.31879e+01
   5.06000e+03,    4.62353e+00,    4.84327e+00,    3.31971e+01
   5.07000e+03,    4.62399e+00,    4.84284e+00,    3.32062e+01
   5.08000e+03,    4.62445e+00,    4.84241e+00,    3.32153e+01
   5.09000e+03,    4.62489e+00,    4.84198e+00,    3.32244e+01
   5.10000e+03,    4.62533e+00,    4.84156e+00,    3.32335e+01
   5.11000e+03,    4.62576e+00,    4.84113e+00,    3.32426e+01
   5.12000e+03,    4.62618e+00,    4.84071e+00,    3.32516e+01
   5.13000e+03,    4.62659e+00,    4.84029e+00,    3.32606e+01
   5.14000e+03,    4.62700e+00,    4.83988e+00,    3.32696e+01
   5.15000e+03,    4.62740e+00,    4.83947e+00,    3.32786e+01
   5.16000e+03,    4.62779e+00,    4.83906e+00,    3.32876e+01
   5.17000e+03,    4.62817e+00,    4.83865e+00,    3.32966e+01
   5.18000e+03,    4.62854e+00,    4.83824e+00,    3.33055e+01
   5.19000e+03,    4.62891e+00,    4.83784e+00,    3.33144e+01
   5.20000e+03,    4.62927e+00,    4.83744e+00,    3.33234e+01
   5.21000e+03,    4.62962e+00,    4.83704e+00,    3.33322e+01
   5.22000e+03,    4.62996e+00,    4.83664e+00,    3.33411e+01
   5.23000e+03,    4.63029e+00,    4.83625e+00,    3.33500e+01
   5.24000e+03,    4.63062e+00,    4.83585e+00,    3.33588e+01
   5.25000e+03,    4.63094e+00,    4.83546e+00,    3.33677e+01
   5.26000e+03,    4.63125e+00,    4.83507e+00,    3.33765e+01
   5.27000e+03,    4.63155e+00,    4.83469e+00,    3.33853e+01
   5.28000e+03,    4.63184e+00,    4.83430e+00,    3.33940e+01
   5.29000e+03,    4.63213e+00,    4.83392e+00,    3.34028e+01
   5.30000e+03,    4.63241e+00,    4.83354e+00,    3.34116e+01
   5.31000e+03,    4.63268e+00,    4.83316e+00,    3.34203e+01
   5.32000e+03,    4.63294e+00,    4.83278e+00,    3.34290e+01
   5.33000e+03,    4.63319e+00,    4.83241e+00,    3.34377e+01
   5.34000e+03,    4.63344e+00,    4.83204e+00,    3.34464e+01
   5.35000e+03,    4.63367e+00,    4.83167e+00,    3.34551e+01
   5.36000e+03,    4.63390e+00,    4.83130e+00,    3.34637e+01
   5.37000e+03,    4.63412e+00,    4.83093e+00,    3.34724e+01
   5.38000e+03,    4.63433e+00,    4.83056e+00,    3.34810e+01
   5.39000e+03,    4.63454e+00,    4.83020e+00,    3.34896e+01
   5.40000e+03,    4.63473e+00,    4.82984e+00,    3.34982e+01
   5.41000e+03,    4.63492e+00,    4.82948e+00,    3.35068e+01
   5.42000e+03,    4.63510e+00,    4.82912e+00,    3.35153e+01
   5.43000e+03,    4.63527e+00,    4.82876e+00,    3.35239e+01
   5.44000e+03,    4.63543e+00,    4.82841e+00,    3.35324e+01
   5.45000e+03,    4.63558e+00,    4.82805e+00,    3.35409e+01
   5.46000e+03,    4.63573e+00,    4.82770e+00,    3.35494e+01
   5.47000e+03,    4.63586e+00,    4.82735e+00,    3.35579e+01
   5.48000e+03,    4.63599e+00,    4.82700e+00,    3.35663e+01
   5.49000e+03,    4.63611e+00,    4.82665e+00,    3.35748e+01
   5.50000e+03,    4.63622e+00,    4.82631e+00,    3.35832e+01
   5.51000e+03,    4.63633e+00,    4.82596e+00,    3.35917e+01
   5.52000e+03,    4.63642e+00,    4.82562e+00,    3.36001e+01
   5.53000e+03,    4.63651e+00,    4.82527e+00,    3.36085e+01
   5.54000e+03,    4.63658e+00,    4.82493e+00,    3.36168e+01
   5.55000e+03,    4.63665e+00,    4.82459e+00,    3.36252e+01
   5.56000e+03,    4.63671e+00,    4.82426e+00,    3.36335e+01
   5.57000e+03,    4.63677e+00,    4.82392e+00,    3.36419e+01
   5.58000e+03,    4.63681e+00,    4.82358e+00,    3.36502e+01
   5.59000e+03,    4.63685e+00,    4.82325e+00,    3.36585e+01
   5.60000e+03,    4.63687e+00,    4.82292e+00,    3.36668e+01
   5.61000e+03,    4.63689e+00,    4.82259e+00,    3.36751e+01
   5.62000e+03,    4.63690e+00,    4.82226e+00,    3.36833e+01
   5.63000e+03,    4.63690e+00,    4.82193e+00,    3.36916e+01
   5.64000e+03,    4.63690e+00,    4.82160e+00,    3.36998e+01
   5.65000e+03,    4.63688e+00,    4.82127e+00,    3.37080e+01
   5.66000e+03,    4.63686e+00,    4.82095e+00,    3.37162e+01
   5.67000e+03,    4.63682e+00,    4.82062e+00,    3.37244e+01
   5.68000e+03,    4.63678e+00,    4.82030e+00,    3.37326e+01
   5.69000e+03,    4.63673e+00,    4.81997e+00,    3.37407e+01
   5.70000e+03,    4.63667e+00,    4.81965e+00,    3.37488e+01
   5.71000e+03,    4.63661e+00,    4.81933e+00,    3.37570e+01
   5.72000e+03,    4.63653e+00,    4.81901e+00,    3.37651e+01
   5.73000e+03,    4.63645e+00,    4.81869e+00,    3.37732e+01
   5.74000e+03,    4.63635e+00,    4.81838e+00,    3.37813e+01
   5.75000e+03,    4.63625e+00,    4.81806e+00,    3.37893e+01
   5.76000e+03,    4.63614e+00,    4.81774e+00,    3.37974e+01
   5.77000e+03,    4.63603e+00,    4.81743e+00,    3.38054e+01
   5.78000e+03,    4.63590e+00,    4.81712e+00,    3.38135e+01
   5.79000e+03,    4.63576e+00,    4.81680e+00,    3.38215e+01
   5.80000e+03,    4.63562e+00,    4.81649e+00,    3.38295e+01
   5.81000e+03,    4.63547e+00,    4.81618e+00,    3.38375e+01
   5.82000e+03,    4.63531e+00,    4.81587e+00,    3.38454e+01
   5.83000e+03,    4.63514e+00,    4.81556e+00,    3.38534e+01
   5.84000e+03,    4.63496e+00,    4.81525e+00,    3.38613e+01
   5.85000e+03,    4.63477e+00,    4.81494e+00,    3.38693e+01
   5.86000e+03,    4.63458e+00,    4.81463e+00,    3.38772e+01
   5.87000e+03,    4.63438e+00,    4.81433e+00,    3.38851e+01
   5.88000e+03,    4.63416e+00,    4.81402e+00,    3.38930e+01
   5.89000e+03,    4.63394e+00,    4.81372e+00,    3.39008e+01
   5.90000e+03,    4.63371e+00,    4.81341e+00,    3.39087e+01
   5.91000e+03,    4.63348e+00,    4.81311e+00,    3.39166e+01
   5.92000e+03,    4.63323e+00,    4.81280e+00,    3.39244e+01
   5.93000e+03,    4.63298e+00,    4.81250e+00,    3.39322e+01
   5.94000e+03,    4.63271e+00,    4.81220e+00,    3.39400e+01
   5.95000e+03,    4.63244e+00,    4.81189e+00,    3.39478e+01
   5.96000e+03,    4.63216e+00,    4.81159e+00,    3.39556e+01
   5.97000e+03,    4.63187e+00,    4.81129e+00,    3.39634e+01
   5.98000e+03,    4.63157e+00,    4.81099e+00,    3.39711e+01
   5.99000e+03,    4.63127e+00,    4.81069e+00,    3.39788e+01
   6.00000e+03,    4.63095e+00,    4.81039e+00,    3.39866e+01
   6.01000e+03,    4.63063e+00,    4.81009e+00,    3.39943e+01
   6.02000e+03,    4.63030e+00,    4.80980e+00,    3.40020e+01
   6.03000e+03,    4.62996e+00,    4.80950e+00,    3.40097e+01
   6.04000e+03,    4.62961e+00,    4.80920e+00,    3.40173e+01
   6.05000e+03,    4.62926e+00,    4.80890e+00,    3.40250e+01
   6.06000e+03,    4.62889e+00,    4.80861e+00,    3.40326e+01
   6.07000e+03,    4.62852e+00,    4.80831e+00,    3.40403e+01
   6.08000e+03,    4.62814e+00,    4.80801e+00,    3.40479e+01
   6.09000e+03,    4.62775e+00,    4.80772e+00,    3.40555e+01
   6.10000e+03,    4.62735e+00,    4.80742e+00,    3.40631e+01
   6.11000e+03,    4.62694e+00,    4.80713e+00,    3.40707e+01
   6.12000e+03,    4.62653e+00,    4.80683e+00,    3.40782e+01
   6.13000e+03,    4.62610e+00,    4.80654e+00,    3.40858e+01
   6.14000e+03,    4.62567e+00,    4.80624e+00,    3.40933e+01
   6.15000e+03,    4.62523e+00,    4.80595e+00,    3.41009e+01
   6.16000e+03,    4.62478e+00,    4.80566e+00,    3.41084e+01
   6.17000e+03,    4.62433e+00,    4.80536e+00,    3.41159e+01
   6.18000e+03,    4.62386e+00,    4.80507e+00,    3.41234e+01
   6.19000e+03,    4.62339e+00,    4.80478e+00,    3.41308e+01
   6.20000e+03,    4.62291e+00,    4.80448e+00,    3.41383e+01
   6.21000e+03,    4.62242e+00,    4.80419e+00,    3.41457e+01
   6.22000e+03,    4.62192e+00,    4.80390e+00,    3.41532e+01
   6.23000e+03,    4.62141e+00,    4.80361e+00,    3.41606e+01
   6.24000e+03,    4.62090e+00,    4.80331e+00,    3.41680e+01
   6.25000e+03,    4.62037e+00,    4.80302e+00,    3.41754e+01
   6.26000e+03,    4.61984e+00,    4.80273e+00,    3.41828e+01
   6.27000e+03,    4.61930e+00,    4.80244e+00,    3.41902e+01
   6.28000e+03,    4.61876e+00,    4.80215e+00,    3.41975e+01
   6.29000e+03,    4.61820e+00,    4.80185e+00,    3.42049e+01
   6.30000e+03,    4.61764e+00,    4.80156e+00,    3.42122e+01
   6.31000e+03,    4.61707e+00,    4.80127e+00,    3.42195e+01
   6.32000e+03,    4.61649e+00,    4.80098e+00,    3.42269e+01
   6.33000e+03,    4.61590e+00,    4.80069e+00,    3.42342e+01
   6.34000e+03,    4.61530e+00,    4.80039e+00,    3.42414e+01
   6.35000e+03,    4.61470e+00,    4.80010e+00,    3.42487e+01
   6.36000e+03,    4.61409e+00,    4.79981e+00,    3.42560e+01
   6.37000e+03,    4.61346e+00,    4.79952e+00,    3.42632e+01
   6.38000e+03,    4.61284e+00,    4.79923e+00,    3.42705e+01
   6.39000e+03,    4.61220e+00,    4.79893e+00,    3.42777e+01
   6.40000e+03,    4.61156e+00,    4.79864e+00,    3.42849e+01
   6.41000e+03,    4.61090e+00,    4.79835e+00,    3.42921e+01
   6.42000e+03,    4.61024e+00,    4.79806e+00,    3.42993e+01
   6.43000e+03,    4.60958e+00,    4.79776e+00,    3.43065e+01
   6.44000e+03,    4.60890e+00,    4.79747e+00,    3.43136e+01
   6.45000e+03,    4.60822e+00,    4.79718e+00,    3.43208e+01
   6.46000e+03,    4.60753e+00,    4.79688e+00,    3.43279e+01
   6.47000e+03,    4.60683e+00,    4.79659e+00,    3.43350e+01
   6.48000e+03,    4.60612e+00,    4.79630e+00,    3.43421e+01
   6.49000e+03,    4.60540e+00,    4.79600e+00,    3.43492e+01
   6.50000e+03,    4.60468e+00,    4.79571e+00,    3.43563e+01
   6.51000e+03,    4.60395e+00,    4.79542e+00,    3.43634e+01
   6.52000e+03,    4.60321e+00,    4.79512e+00,    3.43705e+01
   6.53000e+03,    4.60247e+00,    4.79483e+00,    3.43775e+01
   6.54000e+03,    4.60171e+00,    4.79453e+00,    3.43846e+01
   6.55000e+03,    4.60095e+00,    4.79424e+00,    3.43916e+01
   6.56000e+03,    4.60018e+00,    4.79394e+00,    3.43986e+01
   6.57000e+03,    4.59940e+00,    4.79365e+00,    3.44056e+01
   6.58000e+03,    4.59862e+00,    4.79335e+00,    3.44126e+01
   6.59000e+03,    4.59783e+00,    4.79306e+00,    3.44196e+01
   6.60000e+03,    4.59703e+00,    4.79276e+00,    3.44266e+01
   6.61000e+03,    4.59622e+00,    4.79246e+00,    3.44335e+01
   6.62000e+03,    4.59541e+00,    4.79217e+00,    3.44405e+01
   6.63000e+03,    4.59459e+00,    4.79187e+00,    3.44474e+01
   6.64000e+03,    4.59376e+00,    4.79157e+00,    3.44544e+01
   6.65000e+03,    4.59292e+00,    4.79127e+00,    3.44613e+01
   6.66000e+03,    4.59207e+00,    4.79097e+00,    3.44682e+01
   6.67000e+03,    4.59122e+00,    4.79068e+00,    3.44751e+01
   6.68000e+03,    4.59036e+00,    4.79038e+00,    3.44819e+01
   6.69000e+03,    4.58950e+00,    4.79008e+00,    3.44888e+01
   6.70000e+03,    4.58862e+00,    4.78978e+00,    3.44957e+01
   6.71000e+03,    4.58774e+00,    4.78948e+00,    3.45025e+01
   6.72000e+03,    4.58685e+00,    4.78918e+00,    3.45093e+01
   6.73000e+03,    4.58596e+00,    4.78887e+00,    3.45161e+01
   6.74000e+03,    4.58506e+00,    4.78857e+00,    3.45230e+01
   6.75000e+03,    4.58414e+00,    4.78827e+00,    3.45298e+01
   6.76000e+03,    4.58323e+00,    4.78797e+00,    3.45365e+01
   6.77000e+03,    4.58230e+00,    4.78766e+00,    3.45433e+01
   6.78000e+03,    4.58137e+00,    4.78736e+00,    3.45501e+01
   6.79000e+03,    4.58043e+00,    4.78706e+00,    3.45568e+01
   6.80000e+03,    4.57949e+00,    4.78675e+00,    3.45636e+01
   6.81000e+03,    4.57853e+00,    4.78645e+00,    3.45703e+01
   6.82000e+03,    4.57757e+00,    4.78614e+00,    3.45770e+01
   6.83000e+03,    4.57661e+00,    4.78584e+00,    3.45837e+01
   6.84000e+03,    4.57563e+00,    4.78553e+00,    3.45904e+01
   6.85000e+03,    4.57465e+00,    4.78522e+00,    3.45971e+01
   6.86000e+03,    4.57366e+00,    4.78491e+00,    3.46038e+01
   6.87000e+03,    4.57267e+00,    4.78461e+00,    3.46104e+01
   6.88000e+03,    4.57167e+00,    4.78430e+00,    3.46171e+01
   6.89000e+03,    4.57066e+00,    4.78399e+00,    3.46237e+01
   6.90000e+03,    4.56964e+00,    4.78368e+00,    3.46303e+01
   6.91000e+03,    4.56862e+00,    4.78337e+00,    3.46370e+01
   6.92000e+03,    4.56759e+00,    4.78306e+00,    3.46436e+01
   6.93000e+03,    4.56656e+00,    4.78274e+00,    3.46502e+01
   6.94000e+03,    4.56551e+00,    4.78243e+00,    3.46568e+01
   6.95000e+03,    4.56446e+00,    4.78212e+00,    3.46633e+01
   6.96000e+03,    4.56341e+00,    4.78181e+00,    3.46699e+01
   6.97000e+03,    4.56235e+00,    4.78149e+00,    3.46764e+01
   6.98000e+03,    4.56128e+00,    4.78118e+00,    3.46830e+01
   6.99000e+03,    4.56020e+00,    4.78086e+00,    3.46895e+01
   7.00000e+03,    4.55912e+00,    4.78055e+00,    3.46960e+01
   7.01000e+03,    4.55803e+00,    4.78023e+00,    3.47025e+01
   7.02000e+03,    4.55694e+00,    4.77991e+00,    3.47090e+01
   7.03000e+03,    4.55583e+00,    4.77959e+00,    3.47155e+01
   7.04000e+03,    4.55473e+00,    4.77928e+00,    3.47220e+01
   7.05000e+03,    4.55361e+00,    4.77896e+00,    3.47285e+01
   7.06000e+03,    4.55249e+00,    4.77864e+00,    3.47349e+01
   7.07000e+03,    4.55136e+00,    4.77832e+00,    3.47414e+01
   7.08000e+03,    4.55023e+00,    4.77799e+00,    3.47478e+01
   7.09000e+03,    4.54909e+00,    4.77767e+00,    3.47542e+01
   7.10000e+03,    4.54794e+00,    4.77735e+00,    3.47606e+01
   7.11000e+03,    4.54679e+00,    4.77703e+00,    3.47670e+01
   7.12000e+03,    4.54563e+00,    4.77670e+00,    3.47734e+01
   7.13000e+03,    4.54447e+00,    4.77638e+00,    3.47798e+01
   7.14000e+03,    4.54330e+00,    4.77605e+00,    3.47862e+01
   7.15000e+03,    4.54212e+00,    4.77572e+00,    3.47925e+01
   7.16000e+03,    4.54094e+00,    4.77540e+00,    3.47989e+01
   7.17000e+03,    4.53975e+00,    4.77507e+00,    3.48052e+01
   7.18000e+03,    4.53855e+00,    4.77474e+00,    3.48115e+01
   7.19000e+03,    4.53735e+00,    4.77441e+00,    3.48178e+01
   7.20000e+03,    4.53614e+00,    4.77408e+00,    3.48241e+01
   7.21000e+03,    4.53493e+00,    4.77375e+00,    3.48304e+01
   7.22000e+03,    4.53371e+00,    4.77342e+00,    3.48367e+01
   7.23000e+03,    4.53248e+00,    4.77309e+00,    3.48430e+01
   7.24000e+03,    4.53125e+00,    4.77275e+00,    3.48493e+01
   7.25000e+03,    4.53002e+00,    4.77242e+00,    3.48555e+01
   7.26000e+03,    4.52877e+00,    4.77208e+00,    3.48618e+01
   7.27000e+03,    4.52753e+00,    4.77175e+00,    3.48680e+01
   7.28000e+03,    4.52627e+00,    4.77141e+00,    3.48742e+01
   7.29000e+03,    4.52501e+00,    4.77108e+00,    3.48804e+01
   7.30000e+03,    4.52375e+00,    4.77074e+00,    3.48866e+01
   7.31000e+03,    4.52247e+00,    4.77040e+00,    3.48928e+01
   7.32000e+03,    4.52120e+00,    4.77006e+00,    3.48990e+01
   7.33000e+03,    4.51992e+00,    4.76972e+00,    3.49052e+01
   7.34000e+03,    4.51863e+00,    4.76938e+00,    3.49113e+01
   7.35000e+03,    4.51733e+00,    4.76904e+00,    3.49175e+01
   7.36000e+03,    4.51603e+00,    4.76869e+00,    3.49236e+01
   7.37000e+03,    4.51473e+00,    4.76835e+00,    3.49298e+01
   7.38000e+03,    4.51342e+00,    4.76800e+00,    3.49359e+01
   7.39000e+03,    4.51210e+00,    4.76766e+00,    3.49420e+01
   7.40000e+03,    4.51078e+00,    4.76731e+00,    3.49481e+01
   7.41000e+03,    4.50946e+00,    4.76697e+00,    3.49542e+01
   7.42000e+03,    4.50813e+00,    4.76662e+00,    3.49603e+01
   7.43000e+03,    4.50679e+00,    4.76627e+00,    3.49663e+01
   7.44000e+03,    4.50545e+00,    4.76592e+00,    3.49724e+01
   7.45000e+03,    4.50410e+00,    4.76557e+00,    3.49784e+01
   7.46000e+03,    4.50275e+00,    4.76522e+00,    3.49845e+01
   7.47000e+03,    4.50139e+00,    4.76487e+00,    3.49905e+01
   7.48000e+03,    4.50003e+00,    4.76451e+00,    3.49965e+01
   7.49000e+03,    4.49866e+00,    4.76416e+00,    3.50025e+01
   7.50000e+03,    4.49729e+00,    4.76380e+00,    3.50085e+01
   7.51000e+03,    4.49591e+00,    4.76345e+00,    3.50145e+01
   7.52000e+03,    4.49453e+00,    4.76309e+00,    3.50205e+01
   7.53000e+03,    4.49314e+00,    4.76273e+00,    3.50265e+01
   7.54000e+03,    4.49175e+00,    4.76237e+00,    3.50325e+01
   7.55000e+03,    4.49035e+00,    4.76202e+00,    3.50384e+01
   7.56000e+03,    4.48894e+00,    4.76166e+00,    3.50443e+01
   7.57000e+03,    4.48754e+00,    4.76129e+00,    3.50503e+01
   7.58000e+03,    4.48612e+00,    4.76093e+00,    3.50562e+01
   7.59000e+03,    4.48471e+00,    4.76057e+00,    3.50621e+01
   7.60000e+03,    4.48329e+00,    4.76020e+00,    3.50680e+01
   7.61000e+03,    4.48186e+00,    4.75984e+00,    3.50739e+01
   7.62000e+03,    4.48043e+00,    4.75947e+00,    3.50798e+01
   7.63000e+03,    4.47899e+00,    4.75911e+00,    3.50857e+01
   7.64000e+03,    4.47755e+00,    4.75874e+00,    3.50915e+01
   7.65000e+03,    4.47610e+00,    4.75837e+00,    3.50974e+01
   7.66000e+03,    4.47465e+00,    4.75800e+00,    3.51032e+01
   7.67000e+03,    4.47320e+00,    4.75763e+00,    3.51091e+01
   7.68000e+03,    4.47174e+00,    4.75726e+00,    3.51149e+01
   7.69000e+03,    4.47028e+00,    4.75689e+00,    3.51207e+01
   7.70000e+03,    4.46881e+00,    4.75652e+00,    3.51265e+01
   7.71000e+03,    4.46734e+00,    4.75614e+00,    3.51323e+01
   7.72000e+03,    4.46586e+00,    4.75577e+00,    3.51381e+01
   7.73000e+03,    4.46438e+00,    4.75539e+00,    3.51439e+01
   7.74000e+03,    4.46289e+00,    4.75501e+00,    3.51497e+01
   7.75000e+03,    4.46140e+00,    4.75464e+00,    3.51554e+01
   7.76000e+03,    4.45991e+00,    4.75426e+00,    3.51612e+01
   7.77000e+03,    4.45841e+00,    4.75388e+00,    3.51669e+01
   7.78000e+03,    4.45691e+00,    4.75350e+00,    3.51727e+01
   7.79000e+03,    4.45540e+00,    4.75311e+00,    3.51784e+01
   7.80000e+03,    4.45389e+00,    4.75273e+00,    3.51841e+01
   7.81000e+03,    4.45237e+00,    4.75235e+00,    3.51898e+01
   7.82000e+03,    4.45085e+00,    4.75196e+00,    3.51955e+01
   7.83000e+03,    4.44933e+00,    4.75158e+00,    3.52012e+01
   7.84000e+03,    4.44780e+00,    4.75119e+00,    3.52069e+01
   7.85000e+03,    4.44627e+00,    4.75080e+00,    3.52125e+01
   7.86000e+03,    4.44474e+00,    4.75042e+00,    3.52182e+01
   7.87000e+03,    4.44320e+00,    4.75003e+00,    3.52238e+01
   7.88000e+03,    4.44165e+00,    4.74964e+00,    3.52295e+01
   7.89000e+03,    4.44011e+00,    4.74924e+00,    3.52351e+01
   7.90000e+03,    4.43856e+00,    4.74885e+00,    3.52407e+01
   7.91000e+03,    4.43700e+00,    4.74846e+00,    3.52464e+01
   7.92000e+03,    4.43544e+00,    4.74806e+00,    3.52520e+01
   7.93000e+03,    4.43388e+00,    4.74767e+00,    3.52576e+01
   7.94000e+03,    4.43231e+00,    4.74727e+00,    3.52631e+01
   7.95000e+03,    4.43074e+00,    4.74688e+00,    3.52687e+01
   7.96000e+03,    4.42917e+00,    4.74648e+00,    3.52743e+01
   7.97000e+03,    4.42759e+00,    4.74608e+00,    3.52799e+01
   7.98000e+03,    4.42601e+00,    4.74568e+00,    3.52854e+01
   7.99000e+03,    4.42443e+00,    4.74528e+00,    3.52909e+01
   8.00000e+03,    4.42284e+00,    4.74488e+00,    3.52965e+01
   8.01000e+03,    4.42125e+00,    4.74447e+00,    3.53020e+01
   8.02000e+03,    4.41965e+00,    4.74407e+00,    3.53075e+01
   8.03000e+03,    4.41805e+00,    4.74366e+00,    3.53130e+01
   8.04000e+03,    4.41645e+00,    4.74326e+00,    3.53185e+01
   8.05000e+03,    4.41484e+00,    4.74285e+00,    3.53240e+01
   8.06000e+03,    4.41323e+00,    4.74244e+00,    3.53295e+01
   8.07000e+03,    4.41162e+00,    4.74203e+00,    3.53350e+01
   8.08000e+03,    4.41001e+00,    4.74162e+00,    3.53404e+01
   8.09000e+03,    4.40839e+00,    4.74121e+00,    3.53459e+01
   8.10000e+03,    4.40676e+00,    4.74080e+00,    3.53513e+01
   8.11000e+03,    4.40514e+00,    4.74039e+00,    3.53568e+01
   8.12000e+03,    4.40351e+00,    4.73997e+00,    3.53622e+01
   8.13000e+03,    4.40188e+00,    4.73956e+00,    3.53676e+01
   8.14000e+03,    4.40024e+00,    4.73914e+00,    3.53730e+01
   8.15000e+03,    4.39860e+00,    4.73873e+00,    3.53784e+01
   8.16000e+03,    4.39696e+00,    4.73831e+00,    3.53838e+01
   8.17000e+03,    4.39532e+00,    4.73789e+00,    3.53892e+01
   8.18000e+03,    4.39367e+00,    4.73747e+00,    3.53946e+01
   8.19000e+03,    4.39202e+00,    4.73705e+00,    3.53999e+01
   8.20000e+03,    4.39037e+00,    4.73663e+00,    3.54053e+01
   8.21000e+03,    4.38871e+00,    4.73620e+00,    3.54106e+01
   8.22000e+03,    4.38705e+00,    4.73578e+00,    3.54160e+01
   8.23000e+03,    4.38539e+00,    4.73536e+00,    3.54213e+01
   8.24000e+03,    4.38372e+00,    4.73493e+00,    3.54266e+01
   8.25000e+03,    4.38205e+00,    4.73450e+00,    3.54320e+01
   8.26000e+03,    4.38038e+00,    4.73408e+00,    3.54373e+01
   8.27000e+03,    4.37871e+00,    4.73365e+00,    3.54426e+01
   8.28000e+03,    4.37703e+00,    4.73322e+00,    3.54479e+01
   8.29000e+03,    4.37535e+00,    4.73279e+00,    3.54531e+01
   8.30000e+03,    4.37367e+00,    4.73236e+00,    3.54584e+01
   8.31000e+03,    4.37199e+00,    4.73192e+00,    3.54637e+01
   8.32000e+03,    4.37030e+00,    4.73149e+00,    3.54689e+01
   8.33000e+03,    4.36861e+00,    4.73105e+00,    3.54742e+01
   8.34000e+03,    4.36691e+00,    4.73062e+00,    3.54794e+01
   8.35000e+03,    4.36522e+00,    4.73018e+00,    3.54847e+01
   8.36000e+03,    4.36352e+00,    4.72974e+00,    3.54899e+01
   8.37000e+03,    4.36182e+00,    4.72931e+00,    3.54951e+01
   8.38000e+03,    4.36012e+00,    4.72887e+00,    3.55003e+01
   8.39000e+03,    4.35841e+00,    4.72843e+00,    3.55055e+01
   8.40000e+03,    4.35670e+00,    4.72798e+00,    3.55107e+01
   8.41000e+03,    4.35499e+00,    4.72754e+00,    3.55159e+01
   8.42000e+03,    4.35328e+00,    4.72710e+00,    3.55210e+01
   8.43000e+03,    4.35157e+00,    4.72665e+00,    3.55262e+01
   8.44000e+03,    4.34985e+00,    4.72621e+00,    3.55314e+01
   8.45000e+03,    4.34813e+00,    4.72576e+00,    3.55365e+01
   8.46000e+03,    4.34641e+00,    4.72531e+00,    3.55417e+01
   8.47000e+03,    4.34468e+00,    4.72487e+00,    3.55468e+01
   8.48000e+03,    4.34295e+00,    4.72442e+00,    3.55519e+01
   8.49000e+03,    4.34123e+00,    4.72397e+00,    3.55570e+01
   8.50000e+03,    4.33949e+00,    4.72352e+00,    3.55621e+01
   8.51000e+03,    4.33776e+00,    4.72306e+00,    3.55672e+01
   8.52000e+03,    4.33603e+00,    4.72261e+00,    3.55723e+01
   8.53000e+03,    4.33429e+00,    4.72216e+00,    3.55774e+01
   8.54000e+03,    4.33255e+00,    4.72170e+00,    3.55825e+01
   8.55000e+03,    4.33081e+00,    4.72124e+00,    3.55876e+01
   8.56000e+03,    4.32906e+00,    4.72079e+00,    3.55926e+01
   8.57000e+03,    4.32732e+00,    4.72033e+00,    3.55977e+01
   8.58000e+03,    4.32557e+00,    4.71987e+00,    3.56027e+01
   8.59000e+03,    4.32382e+00,    4.71941e+00,    3.56078e+01
   8.60000e+03,    4.32207e+00,    4.71895e+00,    3.56128e+01
   8.61000e+03,    4.32031e+00,    4.71849e+00,    3.56178e+01
   8.62000e+03,    4.31856e+00,    4.71802e+00,    3.56228e+01
   8.63000e+03,    4.31680e+00,    4.71756e+00,    3.56278e+01
   8.64000e+03,    4.31504e+00,    4.71710e+00,    3.56328e+01
   8.65000e+03,    4.31328e+00,    4.71663e+00,    3.56378e+01
   8.66000e+03,    4.31152e+00,    4.71616e+00,    3.56428e+01
   8.67000e+03,    4.30975e+00,    4.71570e+00,    3.56478e+01
   8.68000e+03,    4.30799e+00,    4.71523e+00,    3.56528e+01
   8.69000e+03,    4.30622e+00,    4.71476e+00,    3.56577e+01
   8.70000e+03,    4.30445e+00,    4.71429e+00,    3.56627e+01
   8.71000e+03,    4.30268e+00,    4.71381e+00,    3.56676e+01
   8.72000e+03,    4.30090e+00,    4.71334e+00,    3.56725e+01
   8.73000e+03,    4.29913e+00,    4.71287e+00,    3.56775e+01
   8.74000e+03,    4.29735e+00,    4.71239e+00,    3.56824e+01
   8.75000e+03,    4.29557e+00,    4.71192e+00,    3.56873e+01
   8.76000e+03,    4.29380e+00,    4.71144e+00,    3.56922e+01
   8.77000e+03,    4.29201e+00,    4.71097e+00,    3.56971e+01
   8.78000e+03,    4.29023e+00,    4.71049e+00,    3.57020e+01
   8.79000e+03,    4.28845e+00,    4.71001e+00,    3.57069e+01
   8.80000e+03,    4.28666e+00,    4.70953e+00,    3.57118e+01
   8.81000e+03,    4.28487e+00,    4.70905e+00,    3.57166e+01
   8.82000e+03,    4.28309e+00,    4.70857e+00,    3.57215e+01
   8.83000e+03,    4.28130e+00,    4.70808e+00,    3.57263e+01
   8.84000e+03,    4.27950e+00,    4.70760e+00,    3.57312e+01
   8.85000e+03,    4.27771e+00,    4.70711e+00,    3.57360e+01
   8.86000e+03,    4.27592e+00,    4.70663e+00,    3.57408e+01
   8.87000e+03,    4.27412e+00,    4.70614e+00,    3.57457e+01
   8.88000e+03,    4.27233e+00,    4.70565e+00,    3.57505e+01
   8.89000e+03,    4.27053e+00,    4.70517e+00,    3.57553e+01
   8.90000e+03,    4.26873e+00,    4.70468e+00,    3.57601e+01
   8.91000e+03,    4.26693e+00,    4.70419e+00,    3.57649e+01
   8.92000e+03,    4.26513e+00,    4.70369e+00,    3.57697e+01
   8.93000e+03,    4.26333e+00,    4.70320e+00,    3.57744e+01
   8.94000e+03,    4.26152e+00,    4.70271e+00,    3.57792e+01
   8.95000e+03,    4.25972e+00,    4.70222e+00,    3.57840e+01
   8.96000e+03,    4.25791e+00,    4.70172e+00,    3.57887e+01
   8.97000e+03,    4.25610e+00,    4.70122e+00,    3.57935e+01
   8.98000e+03,    4.25430e+00,    4.70073e+00,    3.57982e+01
   8.99000e+03,    4.25249e+00,    4.70023e+00,    3.58030e+01
   9.00000e+03,    4.25068e+00,    4.69973e+00,    3.58077e+01
   9.01000e+03,    4.24886e+00,    4.69923e+00,    3.58124e+01
   9.02000e+03,    4.24705e+00,    4.69873e+00,    3.58171e+01
   9.03000e+03,    4.24524e+00,    4.69823e+00,    3.58218e+01
   9.04000e+03,    4.24342e+00,    4.69773e+00,    3.58265e+01
   9.05000e+03,    4.24161e+00,    4.69723e+00,    3.58312e+01
   9.06000e+03,    4.23979e+00,    4.69672e+00,    3.58359e+01
   9.07000e+03,    4.23798e+00,    4.69622e+00,    3.58406e+01
   9.08000e+03,    4.23616e+00,    4.69571e+00,    3.58452e+01
   9.09000e+03,    4.23434e+00,    4.69521e+00,    3.58499e+01
   9.10000e+03,    4.23252e+00,    4.69470e+00,    3.58546e+01
   9.11000e+03,    4.23070e+00,    4.69419e+00,    3.58592e+01
   9.12000e+03,    4.22888e+00,    4.69368e+00,    3.58638e+01
   9.13000e+03,    4.22706e+00,    4.69317e+00,    3.58685e+01
   9.14000e+03,    4.22524e+00,    4.69266e+00,    3.58731e+01
   9.15000e+03,    4.22341e+00,    4.69215e+00,    3.58777e+01
   9.16000e+03,    4.22159e+00,    4.69163e+00,    3.58823e+01
   9.17000e+03,    4.21976e+00,    4.69112e+00,    3.58869e+01
   9.18000e+03,    4.21794e+00,    4.69061e+00,    3.58915e+01
   9.19000e+03,    4.21611e+00,    4.69009e+00,    3.58961e+01
   9.20000e+03,    4.21429e+00,    4.68957e+00,    3.59007e+01
   9.21000e+03,    4.21246e+00,    4.68906e+00,    3.59053e+01
   9.22000e+03,    4.21063e+00,    4.68854e+00,    3.59099e+01
   9.23000e+03,    4.20880e+00,    4.68802e+00,    3.59144e+01
   9.24000e+03,    4.20697e+00,    4.68750e+00,    3.59190e+01
   9.25000e+03,    4.20514e+00,    4.68698e+00,    3.59235e+01
   9.26000e+03,    4.20331e+00,    4.68646e+00,    3.59281e+01
   9.27000e+03,    4.20148e+00,    4.68594e+00,    3.59326e+01
   9.28000e+03,    4.19965e+00,    4.68541e+00,    3.59371e+01
   9.29000e+03,    4.19782e+00,    4.68489e+00,    3.59417e+01
   9.30000e+03,    4.19599e+00,    4.68437e+00,    3.59462e+01
   9.31000e+03,    4.19416e+00,    4.68384e+00,    3.59507e+01
   9.32000e+03,    4.19232e+00,    4.68331e+00,    3.59552e+01
   9.33000e+03,    4.19049e+00,    4.68279e+00,    3.59597e+01
   9.34000e+03,    4.18866e+00,    4.68226e+00,    3.59642e+01
   9.35000e+03,    4.18682e+00,    4.68173e+00,    3.59687e+01
   9.36000e+03,    4.18499e+00,    4.68120e+00,    3.59731e+01
   9.37000e+03,    4.18316e+00,    4.68067e+00,    3.59776e+01
   9.38000e+03,    4.18132e+00,    4.68014e+00,    3.59821e+01
   9.39000e+03,    4.17949e+00,    4.67961e+00,    3.59865e+01
   9.40000e+03,    4.17765e+00,    4.67907e+00,    3.59910e+01
   9.41000e+03,    4.17582e+00,    4.67854e+00,    3.59954e+01
   9.42000e+03,    4.17398e+00,    4.67800e+00,    3.59998e+01
   9.43000e+03,    4.17214e+00,    4.67747e+00,    3.60043e+01
   9.44000e+03,    4.17031e+00,    4.67693e+00,    3.60087e+01
   9.45000e+03,    4.16847e+00,    4.67640e+00,    3.60131e+01
   9.46000e+03,    4.16664e+00,    4.67586e+00,    3.60175e+01
   9.47000e+03,    4.16480e+00,    4.67532e+00,    3.60219e+01
   9.48000e+03,    4.16296e+00,    4.67478e+00,    3.60263e+01
   9.49000e+03,    4.16113e+00,    4.67424e+00,    3.60307e+01
   9.50000e+03,    4.15929e+00,    4.67370e+00,    3.60351e+01
   9.51000e+03,    4.15745e+00,    4.67316e+00,    3.60394e+01
   9.52000e+03,    4.15561e+00,    4.67261e+00,    3.60438e+01
   9.53000e+03,    4.15378e+00,    4.67207e+00,    3.60482e+01
   9.54000e+03,    4.15194e+00,    4.67153e+00,    3.60525e+01
   9.55000e+03,    4.15010e+00,    4.67098e+00,    3.60569e+01
   9.56000e+03,    4.14827e+00,    4.67044e+00,    3.60612e+01
   9.57000e+03,    4.14643e+00,    4.66989e+00,    3.60656e+01
   9.58000e+03,    4.14459e+00,    4.66934e+00,    3.60699e+01
   9.59000e+03,    4.14276e+00,    4.66879e+00,    3.60742e+01
   9.60000e+03,    4.14092e+00,    4.66824e+00,    3.60785e+01
   9.61000e+03,    4.13908e+00,    4.66769e+00,    3.60828e+01
   9.62000e+03,    4.13724e+00,    4.66714e+00,    3.60871e+01
   9.63000e+03,    4.13541e+00,    4.66659e+00,    3.60914e+01
   9.64000e+03,    4.13357e+00,    4.66604e+00,    3.60957e+01
   9.65000e+03,    4.13174e+00,    4.66549e+00,    3.61000e+01
   9.66000e+03,    4.12990e+00,    4.66493e+00,    3.61043e+01
   9.67000e+03,    4.12806e+00,    4.66438e+00,    3.61086e+01
   9.68000e+03,    4.12623e+00,    4.66383e+00,    3.61128e+01
   9.69000e+03,    4.12439e+00,    4.66327e+00,    3.61171e+01
   9.70000e+03,    4.12256e+00,    4.66271e+00,    3.61213e+01
   9.71000e+03,    4.12072e+00,    4.66216e+00,    3.61256e+01
   9.72000e+03,    4.11889e+00,    4.66160e+00,    3.61298e+01
   9.73000e+03,    4.11705e+00,    4.66104e+00,    3.61341e+01
   9.74000e+03,    4.11522e+00,    4.66048e+00,    3.61383e+01
   9.75000e+03,    4.11338e+00,    4.65992e+00,    3.61425e+01
   9.76000e+03,    4.11155e+00,    4.65936e+00,    3.61467e+01
   9.77000e+03,    4.10971e+00,    4.65880e+00,    3.61509e+01
   9.78000e+03,    4.10788e+00,    4.65823e+00,    3.61551e+01
   9.79000e+03,    4.10605e+00,    4.65767e+00,    3.61593e+01
   9.80000e+03,    4.10422e+00,    4.65711e+00,    3.61635e+01
   9.81000e+03,    4.10238e+00,    4.65654e+00,    3.61677e+01
   9.82000e+03,    4.10055e+00,    4.65598e+00,    3.61719e+01
   9.83000e+03,    4.09872e+00,    4.65541e+00,    3.61761e+01
   9.84000e+03,    4.09689e+00,    4.65485e+00,    3.61802e+01
   9.85000e+03,    4.09506e+00,    4.65428e+00,    3.61844e+01
   9.86000e+03,    4.09323e+00,    4.65371e+00,    3.61885e+01
   9.87000e+03,    4.09140e+00,    4.65314e+00,    3.61927e+01
   9.88000e+03,    4.08957e+00,    4.65257e+00,    3.61968e+01
   9.89000e+03,    4.08774e+00,    4.65200e+00,    3.62010e+01
   9.90000e+03,    4.08591e+00,    4.65143e+00,    3.62051e+01
   9.91000e+03,    4.08409e+00,    4.65086e+00,    3.62092e+01
   9.92000e+03,    4.08226e+00,    4.65029e+00,    3.62133e+01
   9.93000e+03,    4.08043e+00,    4.64971e+00,    3.62175e+01
   9.94000e+03,    4.07861e+00,    4.64914e+00,    3.62216e+01
   9.95000e+03,    4.07678e+00,    4.64857e+00,    3.62257e+01
   9.96000e+03,    4.07496e+00,    4.64799e+00,    3.62298e+01
   9.97000e+03,    4.07313e+00,    4.64742e+00,    3.62338e+01
   9.98000e+03,    4.07131e+00,    4.64684e+00,    3.62379e+01
   9.99000e+03,    4.06949e+00,    4.64626e+00,    3.62420e+01
   1.00000e+04,    4.06766e+00,    4.64568e+00,    3.62461e+01
