# Cantera Thermodynamics
# Mechanism diatomic
# Computation done on 11-Feb-2020 23:49:38
# Species OH(X)
# Standard state T =    2.98150e+02 (K) P =    1.01325e+05 (Pa)
# C_P           2.98862e+01 (J/K mol)
# H             3.93439e+04 (J/mol)
# S             1.83739e+02 (J/K mol)
# C_P/R         3.59448e+00
# H/RT          1.58711e+01
# S/R           2.20987e+01
#     T            C_P/R           H/RT            S/R
   2.00000e+02,    3.67018e+00,    2.18801e+01,    2.06496e+01
   2.10000e+02,    3.65882e+00,    2.10127e+01,    2.08284e+01
   2.20000e+02,    3.64858e+00,    2.02236e+01,    2.09984e+01
   2.30000e+02,    3.63931e+00,    1.95028e+01,    2.11604e+01
   2.40000e+02,    3.63090e+00,    1.88416e+01,    2.13151e+01
   2.50000e+02,    3.62325e+00,    1.82330e+01,    2.14631e+01
   2.60000e+02,    3.61626e+00,    1.76710e+01,    2.16051e+01
   2.70000e+02,    3.60985e+00,    1.71503e+01,    2.17414e+01
   2.80000e+02,    3.60398e+00,    1.66666e+01,    2.18726e+01
   2.90000e+02,    3.59857e+00,    1.62161e+01,    2.19990e+01
   3.00000e+02,    3.59359e+00,    1.57954e+01,    2.21209e+01
   3.10000e+02,    3.58899e+00,    1.54018e+01,    2.22387e+01
   3.20000e+02,    3.58474e+00,    1.50325e+01,    2.23525e+01
   3.30000e+02,    3.58081e+00,    1.46856e+01,    2.24628e+01
   3.40000e+02,    3.57718e+00,    1.43589e+01,    2.25696e+01
   3.50000e+02,    3.57381e+00,    1.40508e+01,    2.26733e+01
   3.60000e+02,    3.57069e+00,    1.37597e+01,    2.27739e+01
   3.70000e+02,    3.56781e+00,    1.34843e+01,    2.28717e+01
   3.80000e+02,    3.56515e+00,    1.32233e+01,    2.29668e+01
   3.90000e+02,    3.56270e+00,    1.29756e+01,    2.30594e+01
   4.00000e+02,    3.56045e+00,    1.27403e+01,    2.31496e+01
   4.10000e+02,    3.55839e+00,    1.25164e+01,    2.32375e+01
   4.20000e+02,    3.55650e+00,    1.23031e+01,    2.33232e+01
   4.30000e+02,    3.55480e+00,    1.20996e+01,    2.34068e+01
   4.40000e+02,    3.55326e+00,    1.19054e+01,    2.34885e+01
   4.50000e+02,    3.55189e+00,    1.17198e+01,    2.35684e+01
   4.60000e+02,    3.55068e+00,    1.15422e+01,    2.36464e+01
   4.70000e+02,    3.54963e+00,    1.13722e+01,    2.37228e+01
   4.80000e+02,    3.54874e+00,    1.12092e+01,    2.37975e+01
   4.90000e+02,    3.54800e+00,    1.10529e+01,    2.38707e+01
   5.00000e+02,    3.54741e+00,    1.09027e+01,    2.39423e+01
   5.10000e+02,    3.54698e+00,    1.07585e+01,    2.40126e+01
   5.20000e+02,    3.54669e+00,    1.06198e+01,    2.40815e+01
   5.30000e+02,    3.54655e+00,    1.04864e+01,    2.41490e+01
   5.40000e+02,    3.54656e+00,    1.03579e+01,    2.42153e+01
   5.50000e+02,    3.54672e+00,    1.02340e+01,    2.42804e+01
   5.60000e+02,    3.54703e+00,    1.01146e+01,    2.43443e+01
   5.70000e+02,    3.54748e+00,    9.99939e+00,    2.44071e+01
   5.80000e+02,    3.54809e+00,    9.88816e+00,    2.44688e+01
   5.90000e+02,    3.54884e+00,    9.78070e+00,    2.45294e+01
   6.00000e+02,    3.54973e+00,    9.67685e+00,    2.45891e+01
   6.10000e+02,    3.55078e+00,    9.57641e+00,    2.46478e+01
   6.20000e+02,    3.55197e+00,    9.47923e+00,    2.47055e+01
   6.30000e+02,    3.55330e+00,    9.38516e+00,    2.47624e+01
   6.40000e+02,    3.55479e+00,    9.29405e+00,    2.48183e+01
   6.50000e+02,    3.55642e+00,    9.20576e+00,    2.48735e+01
   6.60000e+02,    3.55819e+00,    9.12018e+00,    2.49278e+01
   6.70000e+02,    3.56011e+00,    9.03718e+00,    2.49813e+01
   6.80000e+02,    3.56217e+00,    8.95665e+00,    2.50341e+01
   6.90000e+02,    3.56437e+00,    8.87849e+00,    2.50861e+01
   7.00000e+02,    3.56672e+00,    8.80259e+00,    2.51374e+01
   7.10000e+02,    3.56921e+00,    8.72886e+00,    2.51880e+01
   7.20000e+02,    3.57183e+00,    8.65721e+00,    2.52379e+01
   7.30000e+02,    3.57460e+00,    8.58757e+00,    2.52872e+01
   7.40000e+02,    3.57749e+00,    8.51985e+00,    2.53359e+01
   7.50000e+02,    3.58053e+00,    8.45397e+00,    2.53839e+01
   7.60000e+02,    3.58369e+00,    8.38987e+00,    2.54314e+01
   7.70000e+02,    3.58699e+00,    8.32747e+00,    2.54782e+01
   7.80000e+02,    3.59041e+00,    8.26672e+00,    2.55245e+01
   7.90000e+02,    3.59396e+00,    8.20754e+00,    2.55703e+01
   8.00000e+02,    3.59763e+00,    8.14990e+00,    2.56155e+01
   8.10000e+02,    3.60141e+00,    8.09372e+00,    2.56602e+01
   8.20000e+02,    3.60532e+00,    8.03896e+00,    2.57045e+01
   8.30000e+02,    3.60933e+00,    7.98557e+00,    2.57482e+01
   8.40000e+02,    3.61345e+00,    7.93349e+00,    2.57914e+01
   8.50000e+02,    3.61768e+00,    7.88269e+00,    2.58342e+01
   8.60000e+02,    3.62201e+00,    7.83312e+00,    2.58766e+01
   8.70000e+02,    3.62643e+00,    7.78475e+00,    2.59185e+01
   8.80000e+02,    3.63094e+00,    7.73752e+00,    2.59599e+01
   8.90000e+02,    3.63554e+00,    7.69140e+00,    2.60010e+01
   9.00000e+02,    3.64022e+00,    7.64636e+00,    2.60416e+01
   9.10000e+02,    3.64498e+00,    7.60237e+00,    2.60819e+01
   9.20000e+02,    3.64981e+00,    7.55938e+00,    2.61217e+01
   9.30000e+02,    3.65470e+00,    7.51737e+00,    2.61612e+01
   9.40000e+02,    3.65964e+00,    7.47630e+00,    2.62003e+01
   9.50000e+02,    3.66464e+00,    7.43615e+00,    2.62391e+01
   9.60000e+02,    3.66969e+00,    7.39689e+00,    2.62775e+01
   9.70000e+02,    3.67477e+00,    7.35849e+00,    2.63155e+01
   9.80000e+02,    3.67989e+00,    7.32093e+00,    2.63533e+01
   9.90000e+02,    3.68502e+00,    7.28418e+00,    2.63906e+01
   1.00000e+03,    3.69018e+00,    7.24821e+00,    2.64277e+01
   1.01000e+03,    3.69517e+00,    7.21301e+00,    2.64644e+01
   1.02000e+03,    3.70025e+00,    7.17854e+00,    2.65009e+01
   1.03000e+03,    3.70542e+00,    7.14480e+00,    2.65370e+01
   1.04000e+03,    3.71066e+00,    7.11175e+00,    2.65728e+01
   1.05000e+03,    3.71597e+00,    7.07939e+00,    2.66084e+01
   1.06000e+03,    3.72135e+00,    7.04768e+00,    2.66436e+01
   1.07000e+03,    3.72678e+00,    7.01662e+00,    2.66786e+01
   1.08000e+03,    3.73227e+00,    6.98618e+00,    2.67133e+01
   1.09000e+03,    3.73779e+00,    6.95636e+00,    2.67477e+01
   1.10000e+03,    3.74336e+00,    6.92712e+00,    2.67819e+01
   1.11000e+03,    3.74896e+00,    6.89846e+00,    2.68158e+01
   1.12000e+03,    3.75459e+00,    6.87037e+00,    2.68494e+01
   1.13000e+03,    3.76024e+00,    6.84282e+00,    2.68828e+01
   1.14000e+03,    3.76592e+00,    6.81581e+00,    2.69160e+01
   1.15000e+03,    3.77161e+00,    6.78931e+00,    2.69489e+01
   1.16000e+03,    3.77732e+00,    6.76332e+00,    2.69816e+01
   1.17000e+03,    3.78304e+00,    6.73782e+00,    2.70140e+01
   1.18000e+03,    3.78876e+00,    6.71281e+00,    2.70462e+01
   1.19000e+03,    3.79449e+00,    6.68826e+00,    2.70782e+01
   1.20000e+03,    3.80023e+00,    6.66417e+00,    2.71100e+01
   1.21000e+03,    3.80596e+00,    6.64052e+00,    2.71416e+01
   1.22000e+03,    3.81168e+00,    6.61731e+00,    2.71729e+01
   1.23000e+03,    3.81740e+00,    6.59453e+00,    2.72041e+01
   1.24000e+03,    3.82312e+00,    6.57215e+00,    2.72350e+01
   1.25000e+03,    3.82882e+00,    6.55018e+00,    2.72657e+01
   1.26000e+03,    3.83451e+00,    6.52861e+00,    2.72962e+01
   1.27000e+03,    3.84019e+00,    6.50742e+00,    2.73266e+01
   1.28000e+03,    3.84586e+00,    6.48660e+00,    2.73567e+01
   1.29000e+03,    3.85151e+00,    6.46615e+00,    2.73867e+01
   1.30000e+03,    3.85714e+00,    6.44606e+00,    2.74164e+01
   1.31000e+03,    3.86275e+00,    6.42632e+00,    2.74460e+01
   1.32000e+03,    3.86834e+00,    6.40692e+00,    2.74754e+01
   1.33000e+03,    3.87391e+00,    6.38785e+00,    2.75046e+01
   1.34000e+03,    3.87946e+00,    6.36911e+00,    2.75337e+01
   1.35000e+03,    3.88499e+00,    6.35069e+00,    2.75625e+01
   1.36000e+03,    3.89049e+00,    6.33258e+00,    2.75912e+01
   1.37000e+03,    3.89597e+00,    6.31478e+00,    2.76197e+01
   1.38000e+03,    3.90142e+00,    6.29727e+00,    2.76481e+01
   1.39000e+03,    3.90685e+00,    6.28005e+00,    2.76763e+01
   1.40000e+03,    3.91225e+00,    6.26312e+00,    2.77043e+01
   1.41000e+03,    3.91762e+00,    6.24647e+00,    2.77322e+01
   1.42000e+03,    3.92296e+00,    6.23008e+00,    2.77599e+01
   1.43000e+03,    3.92827e+00,    6.21397e+00,    2.77874e+01
   1.44000e+03,    3.93356e+00,    6.19812e+00,    2.78148e+01
   1.45000e+03,    3.93882e+00,    6.18252e+00,    2.78421e+01
   1.46000e+03,    3.94404e+00,    6.16717e+00,    2.78692e+01
   1.47000e+03,    3.94924e+00,    6.15206e+00,    2.78961e+01
   1.48000e+03,    3.95441e+00,    6.13719e+00,    2.79229e+01
   1.49000e+03,    3.95955e+00,    6.12256e+00,    2.79495e+01
   1.50000e+03,    3.96465e+00,    6.10816e+00,    2.79760e+01
   1.51000e+03,    3.96973e+00,    6.09398e+00,    2.80024e+01
   1.52000e+03,    3.97477e+00,    6.08002e+00,    2.80286e+01
   1.53000e+03,    3.97978e+00,    6.06628e+00,    2.80547e+01
   1.54000e+03,    3.98477e+00,    6.05275e+00,    2.80806e+01
   1.55000e+03,    3.98972e+00,    6.03942e+00,    2.81064e+01
   1.56000e+03,    3.99463e+00,    6.02630e+00,    2.81321e+01
   1.57000e+03,    3.99952e+00,    6.01337e+00,    2.81577e+01
   1.58000e+03,    4.00438e+00,    6.00064e+00,    2.81831e+01
   1.59000e+03,    4.00920e+00,    5.98810e+00,    2.82083e+01
   1.60000e+03,    4.01399e+00,    5.97575e+00,    2.82335e+01
   1.61000e+03,    4.01876e+00,    5.96358e+00,    2.82585e+01
   1.62000e+03,    4.02349e+00,    5.95159e+00,    2.82834e+01
   1.63000e+03,    4.02818e+00,    5.93977e+00,    2.83082e+01
   1.64000e+03,    4.03285e+00,    5.92813e+00,    2.83328e+01
   1.65000e+03,    4.03749e+00,    5.91666e+00,    2.83574e+01
   1.66000e+03,    4.04209e+00,    5.90535e+00,    2.83818e+01
   1.67000e+03,    4.04666e+00,    5.89421e+00,    2.84061e+01
   1.68000e+03,    4.05121e+00,    5.88322e+00,    2.84303e+01
   1.69000e+03,    4.05572e+00,    5.87240e+00,    2.84543e+01
   1.70000e+03,    4.06020e+00,    5.86172e+00,    2.84782e+01
   1.71000e+03,    4.06465e+00,    5.85120e+00,    2.85021e+01
   1.72000e+03,    4.06907e+00,    5.84083e+00,    2.85258e+01
   1.73000e+03,    4.07346e+00,    5.83060e+00,    2.85494e+01
   1.74000e+03,    4.07782e+00,    5.82051e+00,    2.85729e+01
   1.75000e+03,    4.08215e+00,    5.81057e+00,    2.85963e+01
   1.76000e+03,    4.08645e+00,    5.80076e+00,    2.86195e+01
   1.77000e+03,    4.09072e+00,    5.79109e+00,    2.86427e+01
   1.78000e+03,    4.09496e+00,    5.78155e+00,    2.86658e+01
   1.79000e+03,    4.09917e+00,    5.77213e+00,    2.86887e+01
   1.80000e+03,    4.10335e+00,    5.76285e+00,    2.87116e+01
   1.81000e+03,    4.10751e+00,    5.75370e+00,    2.87343e+01
   1.82000e+03,    4.11163e+00,    5.74466e+00,    2.87569e+01
   1.83000e+03,    4.11573e+00,    5.73575e+00,    2.87795e+01
   1.84000e+03,    4.11979e+00,    5.72696e+00,    2.88019e+01
   1.85000e+03,    4.12383e+00,    5.71828e+00,    2.88243e+01
   1.86000e+03,    4.12785e+00,    5.70972e+00,    2.88465e+01
   1.87000e+03,    4.13183e+00,    5.70127e+00,    2.88687e+01
   1.88000e+03,    4.13579e+00,    5.69293e+00,    2.88907e+01
   1.89000e+03,    4.13972e+00,    5.68470e+00,    2.89127e+01
   1.90000e+03,    4.14362e+00,    5.67658e+00,    2.89345e+01
   1.91000e+03,    4.14750e+00,    5.66857e+00,    2.89563e+01
   1.92000e+03,    4.15135e+00,    5.66065e+00,    2.89779e+01
   1.93000e+03,    4.15517e+00,    5.65284e+00,    2.89995e+01
   1.94000e+03,    4.15897e+00,    5.64513e+00,    2.90210e+01
   1.95000e+03,    4.16274e+00,    5.63752e+00,    2.90424e+01
   1.96000e+03,    4.16648e+00,    5.63001e+00,    2.90637e+01
   1.97000e+03,    4.17020e+00,    5.62259e+00,    2.90849e+01
   1.98000e+03,    4.17390e+00,    5.61526e+00,    2.91060e+01
   1.99000e+03,    4.17757e+00,    5.60803e+00,    2.91271e+01
   2.00000e+03,    4.18121e+00,    5.60088e+00,    2.91480e+01
   2.01000e+03,    4.18483e+00,    5.59383e+00,    2.91689e+01
   2.02000e+03,    4.18843e+00,    5.58686e+00,    2.91897e+01
   2.03000e+03,    4.19200e+00,    5.57998e+00,    2.92103e+01
   2.04000e+03,    4.19555e+00,    5.57319e+00,    2.92310e+01
   2.05000e+03,    4.19907e+00,    5.56648e+00,    2.92515e+01
   2.06000e+03,    4.20257e+00,    5.55985e+00,    2.92719e+01
   2.07000e+03,    4.20605e+00,    5.55330e+00,    2.92923e+01
   2.08000e+03,    4.20950e+00,    5.54683e+00,    2.93126e+01
   2.09000e+03,    4.21294e+00,    5.54044e+00,    2.93328e+01
   2.10000e+03,    4.21635e+00,    5.53413e+00,    2.93529e+01
   2.11000e+03,    4.21973e+00,    5.52789e+00,    2.93729e+01
   2.12000e+03,    4.22310e+00,    5.52173e+00,    2.93929e+01
   2.13000e+03,    4.22644e+00,    5.51564e+00,    2.94128e+01
   2.14000e+03,    4.22976e+00,    5.50962e+00,    2.94326e+01
   2.15000e+03,    4.23306e+00,    5.50368e+00,    2.94523e+01
   2.16000e+03,    4.23634e+00,    5.49780e+00,    2.94719e+01
   2.17000e+03,    4.23960e+00,    5.49200e+00,    2.94915e+01
   2.18000e+03,    4.24283e+00,    5.48626e+00,    2.95110e+01
   2.19000e+03,    4.24605e+00,    5.48059e+00,    2.95304e+01
   2.20000e+03,    4.24924e+00,    5.47498e+00,    2.95498e+01
   2.21000e+03,    4.25242e+00,    5.46944e+00,    2.95691e+01
   2.22000e+03,    4.25557e+00,    5.46397e+00,    2.95883e+01
   2.23000e+03,    4.25871e+00,    5.45856e+00,    2.96074e+01
   2.24000e+03,    4.26183e+00,    5.45321e+00,    2.96265e+01
   2.25000e+03,    4.26492e+00,    5.44792e+00,    2.96455e+01
   2.26000e+03,    4.26800e+00,    5.44269e+00,    2.96644e+01
   2.27000e+03,    4.27106e+00,    5.43752e+00,    2.96832e+01
   2.28000e+03,    4.27410e+00,    5.43241e+00,    2.97020e+01
   2.29000e+03,    4.27712e+00,    5.42736e+00,    2.97207e+01
   2.30000e+03,    4.28012e+00,    5.42237e+00,    2.97394e+01
   2.31000e+03,    4.28311e+00,    5.41743e+00,    2.97579e+01
   2.32000e+03,    4.28607e+00,    5.41255e+00,    2.97764e+01
   2.33000e+03,    4.28902e+00,    5.40772e+00,    2.97949e+01
   2.34000e+03,    4.29195e+00,    5.40294e+00,    2.98133e+01
   2.35000e+03,    4.29486e+00,    5.39822e+00,    2.98316e+01
   2.36000e+03,    4.29776e+00,    5.39355e+00,    2.98498e+01
   2.37000e+03,    4.30064e+00,    5.38894e+00,    2.98680e+01
   2.38000e+03,    4.30350e+00,    5.38437e+00,    2.98861e+01
   2.39000e+03,    4.30635e+00,    5.37985e+00,    2.99042e+01
   2.40000e+03,    4.30918e+00,    5.37539e+00,    2.99221e+01
   2.41000e+03,    4.31199e+00,    5.37097e+00,    2.99401e+01
   2.42000e+03,    4.31479e+00,    5.36660e+00,    2.99579e+01
   2.43000e+03,    4.31757e+00,    5.36228e+00,    2.99757e+01
   2.44000e+03,    4.32033e+00,    5.35800e+00,    2.99935e+01
   2.45000e+03,    4.32308e+00,    5.35377e+00,    3.00111e+01
   2.46000e+03,    4.32581e+00,    5.34959e+00,    3.00288e+01
   2.47000e+03,    4.32853e+00,    5.34545e+00,    3.00463e+01
   2.48000e+03,    4.33123e+00,    5.34135e+00,    3.00638e+01
   2.49000e+03,    4.33392e+00,    5.33730e+00,    3.00812e+01
   2.50000e+03,    4.33659e+00,    5.33329e+00,    3.00986e+01
   2.51000e+03,    4.33925e+00,    5.32933e+00,    3.01159e+01
   2.52000e+03,    4.34190e+00,    5.32540e+00,    3.01332e+01
   2.53000e+03,    4.34453e+00,    5.32152e+00,    3.01504e+01
   2.54000e+03,    4.34714e+00,    5.31768e+00,    3.01675e+01
   2.55000e+03,    4.34974e+00,    5.31388e+00,    3.01846e+01
   2.56000e+03,    4.35233e+00,    5.31012e+00,    3.02016e+01
   2.57000e+03,    4.35491e+00,    5.30639e+00,    3.02186e+01
   2.58000e+03,    4.35747e+00,    5.30271e+00,    3.02355e+01
   2.59000e+03,    4.36001e+00,    5.29907e+00,    3.02524e+01
   2.60000e+03,    4.36255e+00,    5.29546e+00,    3.02692e+01
   2.61000e+03,    4.36507e+00,    5.29189e+00,    3.02860e+01
   2.62000e+03,    4.36758e+00,    5.28836e+00,    3.03027e+01
   2.63000e+03,    4.37007e+00,    5.28486e+00,    3.03193e+01
   2.64000e+03,    4.37255e+00,    5.28140e+00,    3.03359e+01
   2.65000e+03,    4.37502e+00,    5.27798e+00,    3.03524e+01
   2.66000e+03,    4.37748e+00,    5.27459e+00,    3.03689e+01
   2.67000e+03,    4.37992e+00,    5.27123e+00,    3.03853e+01
   2.68000e+03,    4.38236e+00,    5.26791e+00,    3.04017e+01
   2.69000e+03,    4.38478e+00,    5.26462e+00,    3.04180e+01
   2.70000e+03,    4.38719e+00,    5.26137e+00,    3.04343e+01
   2.71000e+03,    4.38959e+00,    5.25815e+00,    3.04505e+01
   2.72000e+03,    4.39197e+00,    5.25496e+00,    3.04667e+01
   2.73000e+03,    4.39435e+00,    5.25180e+00,    3.04828e+01
   2.74000e+03,    4.39671e+00,    5.24868e+00,    3.04989e+01
   2.75000e+03,    4.39906e+00,    5.24558e+00,    3.05149e+01
   2.76000e+03,    4.40140e+00,    5.24252e+00,    3.05309e+01
   2.77000e+03,    4.40373e+00,    5.23949e+00,    3.05468e+01
   2.78000e+03,    4.40605e+00,    5.23649e+00,    3.05627e+01
   2.79000e+03,    4.40836e+00,    5.23351e+00,    3.05785e+01
   2.80000e+03,    4.41066e+00,    5.23057e+00,    3.05943e+01
   2.81000e+03,    4.41294e+00,    5.22766e+00,    3.06100e+01
   2.82000e+03,    4.41522e+00,    5.22477e+00,    3.06257e+01
   2.83000e+03,    4.41749e+00,    5.22191e+00,    3.06413e+01
   2.84000e+03,    4.41975e+00,    5.21909e+00,    3.06569e+01
   2.85000e+03,    4.42199e+00,    5.21629e+00,    3.06725e+01
   2.86000e+03,    4.42423e+00,    5.21351e+00,    3.06880e+01
   2.87000e+03,    4.42646e+00,    5.21077e+00,    3.07034e+01
   2.88000e+03,    4.42867e+00,    5.20805e+00,    3.07188e+01
   2.89000e+03,    4.43088e+00,    5.20535e+00,    3.07342e+01
   2.90000e+03,    4.43308e+00,    5.20269e+00,    3.07495e+01
   2.91000e+03,    4.43527e+00,    5.20005e+00,    3.07647e+01
   2.92000e+03,    4.43745e+00,    5.19743e+00,    3.07799e+01
   2.93000e+03,    4.43962e+00,    5.19484e+00,    3.07951e+01
   2.94000e+03,    4.44178e+00,    5.19227e+00,    3.08103e+01
   2.95000e+03,    4.44394e+00,    5.18973e+00,    3.08253e+01
   2.96000e+03,    4.44608e+00,    5.18722e+00,    3.08404e+01
   2.97000e+03,    4.44822e+00,    5.18473e+00,    3.08554e+01
   2.98000e+03,    4.45034e+00,    5.18226e+00,    3.08703e+01
   2.99000e+03,    4.45246e+00,    5.17981e+00,    3.08852e+01
   3.00000e+03,    4.45457e+00,    5.17739e+00,    3.09001e+01
   3.01000e+03,    4.45667e+00,    5.17500e+00,    3.09149e+01
   3.02000e+03,    4.45877e+00,    5.17262e+00,    3.09297e+01
   3.03000e+03,    4.46085e+00,    5.17027e+00,    3.09445e+01
   3.04000e+03,    4.46293e+00,    5.16794e+00,    3.09592e+01
   3.05000e+03,    4.46500e+00,    5.16563e+00,    3.09738e+01
   3.06000e+03,    4.46706e+00,    5.16334e+00,    3.09885e+01
   3.07000e+03,    4.46911e+00,    5.16108e+00,    3.10030e+01
   3.08000e+03,    4.47116e+00,    5.15884e+00,    3.10176e+01
   3.09000e+03,    4.47320e+00,    5.15661e+00,    3.10321e+01
   3.10000e+03,    4.47523e+00,    5.15441e+00,    3.10465e+01
   3.11000e+03,    4.47725e+00,    5.15223e+00,    3.10609e+01
   3.12000e+03,    4.47927e+00,    5.15007e+00,    3.10753e+01
   3.13000e+03,    4.48128e+00,    5.14793e+00,    3.10897e+01
   3.14000e+03,    4.48328e+00,    5.14581e+00,    3.11039e+01
   3.15000e+03,    4.48527e+00,    5.14371e+00,    3.11182e+01
   3.16000e+03,    4.48726e+00,    5.14163e+00,    3.11324e+01
   3.17000e+03,    4.48924e+00,    5.13957e+00,    3.11466e+01
   3.18000e+03,    4.49122e+00,    5.13753e+00,    3.11608e+01
   3.19000e+03,    4.49318e+00,    5.13550e+00,    3.11749e+01
   3.20000e+03,    4.49514e+00,    5.13350e+00,    3.11889e+01
   3.21000e+03,    4.49710e+00,    5.13151e+00,    3.12030e+01
   3.22000e+03,    4.49904e+00,    5.12955e+00,    3.12169e+01
   3.23000e+03,    4.50098e+00,    5.12760e+00,    3.12309e+01
   3.24000e+03,    4.50292e+00,    5.12567e+00,    3.12448e+01
   3.25000e+03,    4.50484e+00,    5.12375e+00,    3.12587e+01
   3.26000e+03,    4.50676e+00,    5.12186e+00,    3.12725e+01
   3.27000e+03,    4.50868e+00,    5.11998e+00,    3.12863e+01
   3.28000e+03,    4.51059e+00,    5.11812e+00,    3.13001e+01
   3.29000e+03,    4.51249e+00,    5.11628e+00,    3.13138e+01
   3.30000e+03,    4.51439e+00,    5.11445e+00,    3.13275e+01
   3.31000e+03,    4.51628e+00,    5.11264e+00,    3.13412e+01
   3.32000e+03,    4.51816e+00,    5.11085e+00,    3.13548e+01
   3.33000e+03,    4.52004e+00,    5.10907e+00,    3.13684e+01
   3.34000e+03,    4.52191e+00,    5.10731e+00,    3.13820e+01
   3.35000e+03,    4.52378e+00,    5.10556e+00,    3.13955e+01
   3.36000e+03,    4.52564e+00,    5.10383e+00,    3.14090e+01
   3.37000e+03,    4.52749e+00,    5.10212e+00,    3.14224e+01
   3.38000e+03,    4.52934e+00,    5.10042e+00,    3.14359e+01
   3.39000e+03,    4.53119e+00,    5.09874e+00,    3.14492e+01
   3.40000e+03,    4.53303e+00,    5.09708e+00,    3.14626e+01
   3.41000e+03,    4.53486e+00,    5.09542e+00,    3.14759e+01
   3.42000e+03,    4.53669e+00,    5.09379e+00,    3.14892e+01
   3.43000e+03,    4.53851e+00,    5.09217e+00,    3.15024e+01
   3.44000e+03,    4.54033e+00,    5.09056e+00,    3.15156e+01
   3.45000e+03,    4.54214e+00,    5.08897e+00,    3.15288e+01
   3.46000e+03,    4.54395e+00,    5.08739e+00,    3.15420e+01
   3.47000e+03,    4.54575e+00,    5.08583e+00,    3.15551e+01
   3.48000e+03,    4.54755e+00,    5.08428e+00,    3.15682e+01
   3.49000e+03,    4.54934e+00,    5.08274e+00,    3.15812e+01
   3.50000e+03,    4.55113e+00,    5.08122e+00,    3.15943e+01
   3.51000e+03,    4.55291e+00,    5.07971e+00,    3.16072e+01
   3.52000e+03,    4.55468e+00,    5.07822e+00,    3.16202e+01
   3.53000e+03,    4.55646e+00,    5.07674e+00,    3.16331e+01
   3.54000e+03,    4.55822e+00,    5.07527e+00,    3.16460e+01
   3.55000e+03,    4.55999e+00,    5.07382e+00,    3.16589e+01
   3.56000e+03,    4.56174e+00,    5.07238e+00,    3.16717e+01
   3.57000e+03,    4.56350e+00,    5.07095e+00,    3.16845e+01
   3.58000e+03,    4.56524e+00,    5.06953e+00,    3.16973e+01
   3.59000e+03,    4.56699e+00,    5.06813e+00,    3.17100e+01
   3.60000e+03,    4.56873e+00,    5.06674e+00,    3.17227e+01
   3.61000e+03,    4.57046e+00,    5.06536e+00,    3.17354e+01
   3.62000e+03,    4.57219e+00,    5.06400e+00,    3.17480e+01
   3.63000e+03,    4.57392e+00,    5.06265e+00,    3.17606e+01
   3.64000e+03,    4.57564e+00,    5.06131e+00,    3.17732e+01
   3.65000e+03,    4.57735e+00,    5.05998e+00,    3.17858e+01
   3.66000e+03,    4.57906e+00,    5.05866e+00,    3.17983e+01
   3.67000e+03,    4.58077e+00,    5.05736e+00,    3.18108e+01
   3.68000e+03,    4.58248e+00,    5.05606e+00,    3.18233e+01
   3.69000e+03,    4.58417e+00,    5.05478e+00,    3.18357e+01
   3.70000e+03,    4.58587e+00,    5.05351e+00,    3.18481e+01
   3.71000e+03,    4.58756e+00,    5.05226e+00,    3.18605e+01
   3.72000e+03,    4.58925e+00,    5.05101e+00,    3.18729e+01
   3.73000e+03,    4.59093e+00,    5.04977e+00,    3.18852e+01
   3.74000e+03,    4.59261e+00,    5.04855e+00,    3.18975e+01
   3.75000e+03,    4.59428e+00,    5.04733e+00,    3.19097e+01
   3.76000e+03,    4.59595e+00,    5.04613e+00,    3.19220e+01
   3.77000e+03,    4.59761e+00,    5.04494e+00,    3.19342e+01
   3.78000e+03,    4.59928e+00,    5.04376e+00,    3.19464e+01
   3.79000e+03,    4.60093e+00,    5.04259e+00,    3.19585e+01
   3.80000e+03,    4.60259e+00,    5.04143e+00,    3.19706e+01
   3.81000e+03,    4.60424e+00,    5.04028e+00,    3.19827e+01
   3.82000e+03,    4.60588e+00,    5.03914e+00,    3.19948e+01
   3.83000e+03,    4.60752e+00,    5.03801e+00,    3.20069e+01
   3.84000e+03,    4.60916e+00,    5.03689e+00,    3.20189e+01
   3.85000e+03,    4.61079e+00,    5.03578e+00,    3.20309e+01
   3.86000e+03,    4.61242e+00,    5.03468e+00,    3.20428e+01
   3.87000e+03,    4.61405e+00,    5.03359e+00,    3.20548e+01
   3.88000e+03,    4.61567e+00,    5.03252e+00,    3.20667e+01
   3.89000e+03,    4.61729e+00,    5.03145e+00,    3.20786e+01
   3.90000e+03,    4.61890e+00,    5.03039e+00,    3.20904e+01
   3.91000e+03,    4.62051e+00,    5.02934e+00,    3.21022e+01
   3.92000e+03,    4.62212e+00,    5.02829e+00,    3.21140e+01
   3.93000e+03,    4.62372e+00,    5.02726e+00,    3.21258e+01
   3.94000e+03,    4.62532e+00,    5.02624e+00,    3.21376e+01
   3.95000e+03,    4.62691e+00,    5.02523e+00,    3.21493e+01
   3.96000e+03,    4.62850e+00,    5.02422e+00,    3.21610e+01
   3.97000e+03,    4.63009e+00,    5.02323e+00,    3.21727e+01
   3.98000e+03,    4.63167e+00,    5.02224e+00,    3.21843e+01
   3.99000e+03,    4.63325e+00,    5.02127e+00,    3.21959e+01
   4.00000e+03,    4.63483e+00,    5.02030e+00,    3.22075e+01
   4.01000e+03,    4.63640e+00,    5.01934e+00,    3.22191e+01
   4.02000e+03,    4.63797e+00,    5.01839e+00,    3.22307e+01
   4.03000e+03,    4.63953e+00,    5.01745e+00,    3.22422e+01
   4.04000e+03,    4.64109e+00,    5.01651e+00,    3.22537e+01
   4.05000e+03,    4.64265e+00,    5.01559e+00,    3.22652e+01
   4.06000e+03,    4.64420e+00,    5.01467e+00,    3.22766e+01
   4.07000e+03,    4.64575e+00,    5.01376e+00,    3.22881e+01
   4.08000e+03,    4.64730e+00,    5.01286e+00,    3.22995e+01
   4.09000e+03,    4.64884e+00,    5.01197e+00,    3.23108e+01
   4.10000e+03,    4.65038e+00,    5.01109e+00,    3.23222e+01
   4.11000e+03,    4.65191e+00,    5.01021e+00,    3.23335e+01
   4.12000e+03,    4.65344e+00,    5.00934e+00,    3.23448e+01
   4.13000e+03,    4.65497e+00,    5.00848e+00,    3.23561e+01
   4.14000e+03,    4.65649e+00,    5.00763e+00,    3.23674e+01
   4.15000e+03,    4.65801e+00,    5.00679e+00,    3.23786e+01
   4.16000e+03,    4.65953e+00,    5.00595e+00,    3.23898e+01
   4.17000e+03,    4.66104e+00,    5.00512e+00,    3.24010e+01
   4.18000e+03,    4.66255e+00,    5.00430e+00,    3.24122e+01
   4.19000e+03,    4.66405e+00,    5.00349e+00,    3.24233e+01
   4.20000e+03,    4.66555e+00,    5.00268e+00,    3.24344e+01
   4.21000e+03,    4.66705e+00,    5.00188e+00,    3.24455e+01
   4.22000e+03,    4.66854e+00,    5.00109e+00,    3.24566e+01
   4.23000e+03,    4.67003e+00,    5.00031e+00,    3.24677e+01
   4.24000e+03,    4.67152e+00,    4.99953e+00,    3.24787e+01
   4.25000e+03,    4.67300e+00,    4.99876e+00,    3.24897e+01
   4.26000e+03,    4.67448e+00,    4.99800e+00,    3.25007e+01
   4.27000e+03,    4.67595e+00,    4.99724e+00,    3.25116e+01
   4.28000e+03,    4.67742e+00,    4.99649e+00,    3.25226e+01
   4.29000e+03,    4.67889e+00,    4.99575e+00,    3.25335e+01
   4.30000e+03,    4.68035e+00,    4.99501e+00,    3.25444e+01
   4.31000e+03,    4.68181e+00,    4.99428e+00,    3.25553e+01
   4.32000e+03,    4.68327e+00,    4.99356e+00,    3.25661e+01
   4.33000e+03,    4.68472e+00,    4.99285e+00,    3.25769e+01
   4.34000e+03,    4.68616e+00,    4.99214e+00,    3.25878e+01
   4.35000e+03,    4.68761e+00,    4.99144e+00,    3.25985e+01
   4.36000e+03,    4.68905e+00,    4.99074e+00,    3.26093e+01
   4.37000e+03,    4.69048e+00,    4.99005e+00,    3.26200e+01
   4.38000e+03,    4.69191e+00,    4.98937e+00,    3.26308e+01
   4.39000e+03,    4.69334e+00,    4.98870e+00,    3.26415e+01
   4.40000e+03,    4.69476e+00,    4.98803e+00,    3.26522e+01
   4.41000e+03,    4.69618e+00,    4.98736e+00,    3.26628e+01
   4.42000e+03,    4.69760e+00,    4.98671e+00,    3.26735e+01
   4.43000e+03,    4.69901e+00,    4.98605e+00,    3.26841e+01
   4.44000e+03,    4.70041e+00,    4.98541e+00,    3.26947e+01
   4.45000e+03,    4.70182e+00,    4.98477e+00,    3.27052e+01
   4.46000e+03,    4.70321e+00,    4.98414e+00,    3.27158e+01
   4.47000e+03,    4.70461e+00,    4.98351e+00,    3.27263e+01
   4.48000e+03,    4.70600e+00,    4.98289e+00,    3.27368e+01
   4.49000e+03,    4.70739e+00,    4.98227e+00,    3.27473e+01
   4.50000e+03,    4.70877e+00,    4.98167e+00,    3.27578e+01
   4.51000e+03,    4.71014e+00,    4.98106e+00,    3.27683e+01
   4.52000e+03,    4.71152e+00,    4.98046e+00,    3.27787e+01
   4.53000e+03,    4.71289e+00,    4.97987e+00,    3.27891e+01
   4.54000e+03,    4.71425e+00,    4.97929e+00,    3.27995e+01
   4.55000e+03,    4.71561e+00,    4.97870e+00,    3.28099e+01
   4.56000e+03,    4.71697e+00,    4.97813e+00,    3.28202e+01
   4.57000e+03,    4.71832e+00,    4.97756e+00,    3.28306e+01
   4.58000e+03,    4.71967e+00,    4.97699e+00,    3.28409e+01
   4.59000e+03,    4.72101e+00,    4.97644e+00,    3.28512e+01
   4.60000e+03,    4.72235e+00,    4.97588e+00,    3.28615e+01
   4.61000e+03,    4.72368e+00,    4.97533e+00,    3.28717e+01
   4.62000e+03,    4.72501e+00,    4.97479e+00,    3.28820e+01
   4.63000e+03,    4.72633e+00,    4.97425e+00,    3.28922e+01
   4.64000e+03,    4.72765e+00,    4.97372e+00,    3.29024e+01
   4.65000e+03,    4.72897e+00,    4.97319e+00,    3.29125e+01
   4.66000e+03,    4.73028e+00,    4.97267e+00,    3.29227e+01
   4.67000e+03,    4.73159e+00,    4.97215e+00,    3.29329e+01
   4.68000e+03,    4.73289e+00,    4.97164e+00,    3.29430e+01
   4.69000e+03,    4.73418e+00,    4.97113e+00,    3.29531e+01
   4.70000e+03,    4.73548e+00,    4.97063e+00,    3.29632e+01
   4.71000e+03,    4.73676e+00,    4.97013e+00,    3.29732e+01
   4.72000e+03,    4.73804e+00,    4.96964e+00,    3.29833e+01
   4.73000e+03,    4.73932e+00,    4.96915e+00,    3.29933e+01
   4.74000e+03,    4.74059e+00,    4.96866e+00,    3.30033e+01
   4.75000e+03,    4.74186e+00,    4.96819e+00,    3.30133e+01
   4.76000e+03,    4.74312e+00,    4.96771e+00,    3.30233e+01
   4.77000e+03,    4.74438e+00,    4.96724e+00,    3.30332e+01
   4.78000e+03,    4.74563e+00,    4.96678e+00,    3.30432e+01
   4.79000e+03,    4.74688e+00,    4.96632e+00,    3.30531e+01
   4.80000e+03,    4.74812e+00,    4.96586e+00,    3.30630e+01
   4.81000e+03,    4.74936e+00,    4.96541e+00,    3.30729e+01
   4.82000e+03,    4.75059e+00,    4.96496e+00,    3.30827e+01
   4.83000e+03,    4.75181e+00,    4.96452e+00,    3.30926e+01
   4.84000e+03,    4.75303e+00,    4.96408e+00,    3.31024e+01
   4.85000e+03,    4.75425e+00,    4.96365e+00,    3.31122e+01
   4.86000e+03,    4.75546e+00,    4.96322e+00,    3.31220e+01
   4.87000e+03,    4.75666e+00,    4.96279e+00,    3.31318e+01
   4.88000e+03,    4.75786e+00,    4.96237e+00,    3.31416e+01
   4.89000e+03,    4.75905e+00,    4.96195e+00,    3.31513e+01
   4.90000e+03,    4.76024e+00,    4.96154e+00,    3.31610e+01
   4.91000e+03,    4.76142e+00,    4.96113e+00,    3.31707e+01
   4.92000e+03,    4.76260e+00,    4.96073e+00,    3.31804e+01
   4.93000e+03,    4.76377e+00,    4.96033e+00,    3.31901e+01
   4.94000e+03,    4.76493e+00,    4.95993e+00,    3.31997e+01
   4.95000e+03,    4.76609e+00,    4.95954e+00,    3.32094e+01
   4.96000e+03,    4.76724e+00,    4.95915e+00,    3.32190e+01
   4.97000e+03,    4.76839e+00,    4.95876e+00,    3.32286e+01
   4.98000e+03,    4.76953e+00,    4.95838e+00,    3.32382e+01
   4.99000e+03,    4.77067e+00,    4.95801e+00,    3.32478e+01
   5.00000e+03,    4.77180e+00,    4.95763e+00,    3.32573e+01
   5.01000e+03,    4.77292e+00,    4.95726e+00,    3.32668e+01
   5.02000e+03,    4.77403e+00,    4.95690e+00,    3.32764e+01
   5.03000e+03,    4.77514e+00,    4.95653e+00,    3.32859e+01
   5.04000e+03,    4.77625e+00,    4.95618e+00,    3.32953e+01
   5.05000e+03,    4.77735e+00,    4.95582e+00,    3.33048e+01
   5.06000e+03,    4.77844e+00,    4.95547e+00,    3.33143e+01
   5.07000e+03,    4.77952e+00,    4.95512e+00,    3.33237e+01
   5.08000e+03,    4.78060e+00,    4.95478e+00,    3.33331e+01
   5.09000e+03,    4.78167e+00,    4.95443e+00,    3.33425e+01
   5.10000e+03,    4.78274e+00,    4.95410e+00,    3.33519e+01
   5.11000e+03,    4.78380e+00,    4.95376e+00,    3.33613e+01
   5.12000e+03,    4.78485e+00,    4.95343e+00,    3.33706e+01
   5.13000e+03,    4.78589e+00,    4.95310e+00,    3.33800e+01
   5.14000e+03,    4.78693e+00,    4.95278e+00,    3.33893e+01
   5.15000e+03,    4.78796e+00,    4.95246e+00,    3.33986e+01
   5.16000e+03,    4.78899e+00,    4.95214e+00,    3.34079e+01
   5.17000e+03,    4.79001e+00,    4.95183e+00,    3.34172e+01
   5.18000e+03,    4.79102e+00,    4.95151e+00,    3.34264e+01
   5.19000e+03,    4.79202e+00,    4.95121e+00,    3.34357e+01
   5.20000e+03,    4.79302e+00,    4.95090e+00,    3.34449e+01
   5.21000e+03,    4.79401e+00,    4.95060e+00,    3.34541e+01
   5.22000e+03,    4.79499e+00,    4.95030e+00,    3.34633e+01
   5.23000e+03,    4.79596e+00,    4.95000e+00,    3.34725e+01
   5.24000e+03,    4.79693e+00,    4.94971e+00,    3.34816e+01
   5.25000e+03,    4.79789e+00,    4.94942e+00,    3.34908e+01
   5.26000e+03,    4.79884e+00,    4.94913e+00,    3.34999e+01
   5.27000e+03,    4.79978e+00,    4.94885e+00,    3.35090e+01
   5.28000e+03,    4.80072e+00,    4.94857e+00,    3.35181e+01
   5.29000e+03,    4.80165e+00,    4.94829e+00,    3.35272e+01
   5.30000e+03,    4.80257e+00,    4.94801e+00,    3.35363e+01
   5.31000e+03,    4.80348e+00,    4.94774e+00,    3.35453e+01
   5.32000e+03,    4.80439e+00,    4.94747e+00,    3.35544e+01
   5.33000e+03,    4.80529e+00,    4.94720e+00,    3.35634e+01
   5.34000e+03,    4.80618e+00,    4.94694e+00,    3.35724e+01
   5.35000e+03,    4.80706e+00,    4.94668e+00,    3.35814e+01
   5.36000e+03,    4.80793e+00,    4.94642e+00,    3.35904e+01
   5.37000e+03,    4.80880e+00,    4.94616e+00,    3.35993e+01
   5.38000e+03,    4.80965e+00,    4.94590e+00,    3.36083e+01
   5.39000e+03,    4.81050e+00,    4.94565e+00,    3.36172e+01
   5.40000e+03,    4.81134e+00,    4.94540e+00,    3.36261e+01
   5.41000e+03,    4.81217e+00,    4.94516e+00,    3.36350e+01
   5.42000e+03,    4.81300e+00,    4.94491e+00,    3.36439e+01
   5.43000e+03,    4.81381e+00,    4.94467e+00,    3.36528e+01
   5.44000e+03,    4.81461e+00,    4.94443e+00,    3.36616e+01
   5.45000e+03,    4.81541e+00,    4.94419e+00,    3.36705e+01
   5.46000e+03,    4.81620e+00,    4.94396e+00,    3.36793e+01
   5.47000e+03,    4.81698e+00,    4.94372e+00,    3.36881e+01
   5.48000e+03,    4.81775e+00,    4.94349e+00,    3.36969e+01
   5.49000e+03,    4.81851e+00,    4.94326e+00,    3.37057e+01
   5.50000e+03,    4.81926e+00,    4.94304e+00,    3.37145e+01
   5.51000e+03,    4.82000e+00,    4.94281e+00,    3.37232e+01
   5.52000e+03,    4.82074e+00,    4.94259e+00,    3.37320e+01
   5.53000e+03,    4.82146e+00,    4.94237e+00,    3.37407e+01
   5.54000e+03,    4.82217e+00,    4.94216e+00,    3.37494e+01
   5.55000e+03,    4.82288e+00,    4.94194e+00,    3.37581e+01
   5.56000e+03,    4.82357e+00,    4.94173e+00,    3.37668e+01
   5.57000e+03,    4.82426e+00,    4.94152e+00,    3.37755e+01
   5.58000e+03,    4.82493e+00,    4.94131e+00,    3.37841e+01
   5.59000e+03,    4.82560e+00,    4.94110e+00,    3.37928e+01
   5.60000e+03,    4.82626e+00,    4.94089e+00,    3.38014e+01
   5.61000e+03,    4.82690e+00,    4.94069e+00,    3.38100e+01
   5.62000e+03,    4.82754e+00,    4.94049e+00,    3.38186e+01
   5.63000e+03,    4.82816e+00,    4.94029e+00,    3.38272e+01
   5.64000e+03,    4.82878e+00,    4.94009e+00,    3.38357e+01
   5.65000e+03,    4.82938e+00,    4.93989e+00,    3.38443e+01
   5.66000e+03,    4.82998e+00,    4.93970e+00,    3.38528e+01
   5.67000e+03,    4.83056e+00,    4.93950e+00,    3.38614e+01
   5.68000e+03,    4.83114e+00,    4.93931e+00,    3.38699e+01
   5.69000e+03,    4.83170e+00,    4.93912e+00,    3.38784e+01
   5.70000e+03,    4.83225e+00,    4.93894e+00,    3.38869e+01
   5.71000e+03,    4.83280e+00,    4.93875e+00,    3.38953e+01
   5.72000e+03,    4.83333e+00,    4.93856e+00,    3.39038e+01
   5.73000e+03,    4.83385e+00,    4.93838e+00,    3.39122e+01
   5.74000e+03,    4.83436e+00,    4.93820e+00,    3.39207e+01
   5.75000e+03,    4.83485e+00,    4.93802e+00,    3.39291e+01
   5.76000e+03,    4.83534e+00,    4.93784e+00,    3.39375e+01
   5.77000e+03,    4.83581e+00,    4.93766e+00,    3.39459e+01
   5.78000e+03,    4.83628e+00,    4.93749e+00,    3.39542e+01
   5.79000e+03,    4.83673e+00,    4.93731e+00,    3.39626e+01
   5.80000e+03,    4.83717e+00,    4.93714e+00,    3.39709e+01
   5.81000e+03,    4.83760e+00,    4.93697e+00,    3.39793e+01
   5.82000e+03,    4.83802e+00,    4.93680e+00,    3.39876e+01
   5.83000e+03,    4.83842e+00,    4.93663e+00,    3.39959e+01
   5.84000e+03,    4.83882e+00,    4.93646e+00,    3.40042e+01
   5.85000e+03,    4.83920e+00,    4.93629e+00,    3.40125e+01
   5.86000e+03,    4.83957e+00,    4.93613e+00,    3.40207e+01
   5.87000e+03,    4.83993e+00,    4.93596e+00,    3.40290e+01
   5.88000e+03,    4.84027e+00,    4.93580e+00,    3.40372e+01
   5.89000e+03,    4.84061e+00,    4.93564e+00,    3.40455e+01
   5.90000e+03,    4.84093e+00,    4.93548e+00,    3.40537e+01
   5.91000e+03,    4.84124e+00,    4.93532e+00,    3.40619e+01
   5.92000e+03,    4.84153e+00,    4.93516e+00,    3.40701e+01
   5.93000e+03,    4.84181e+00,    4.93500e+00,    3.40782e+01
   5.94000e+03,    4.84208e+00,    4.93485e+00,    3.40864e+01
   5.95000e+03,    4.84234e+00,    4.93469e+00,    3.40945e+01
   5.96000e+03,    4.84259e+00,    4.93454e+00,    3.41027e+01
   5.97000e+03,    4.84282e+00,    4.93438e+00,    3.41108e+01
   5.98000e+03,    4.84303e+00,    4.93423e+00,    3.41189e+01
   5.99000e+03,    4.84324e+00,    4.93408e+00,    3.41270e+01
   6.00000e+03,    4.84343e+00,    4.93393e+00,    3.41351e+01
   6.01000e+03,    4.84374e+00,    4.93378e+00,    3.41431e+01
   6.02000e+03,    4.84404e+00,    4.93363e+00,    3.41512e+01
   6.03000e+03,    4.84433e+00,    4.93348e+00,    3.41592e+01
   6.04000e+03,    4.84461e+00,    4.93333e+00,    3.41672e+01
   6.05000e+03,    4.84489e+00,    4.93318e+00,    3.41753e+01
   6.06000e+03,    4.84515e+00,    4.93304e+00,    3.41833e+01
   6.07000e+03,    4.84541e+00,    4.93289e+00,    3.41912e+01
   6.08000e+03,    4.84566e+00,    4.93275e+00,    3.41992e+01
   6.09000e+03,    4.84590e+00,    4.93261e+00,    3.42072e+01
   6.10000e+03,    4.84613e+00,    4.93247e+00,    3.42151e+01
   6.11000e+03,    4.84635e+00,    4.93232e+00,    3.42231e+01
   6.12000e+03,    4.84657e+00,    4.93218e+00,    3.42310e+01
   6.13000e+03,    4.84677e+00,    4.93204e+00,    3.42389e+01
   6.14000e+03,    4.84697e+00,    4.93191e+00,    3.42468e+01
   6.15000e+03,    4.84715e+00,    4.93177e+00,    3.42547e+01
   6.16000e+03,    4.84733e+00,    4.93163e+00,    3.42626e+01
   6.17000e+03,    4.84750e+00,    4.93149e+00,    3.42704e+01
   6.18000e+03,    4.84766e+00,    4.93136e+00,    3.42783e+01
   6.19000e+03,    4.84781e+00,    4.93122e+00,    3.42861e+01
   6.20000e+03,    4.84795e+00,    4.93109e+00,    3.42940e+01
   6.21000e+03,    4.84809e+00,    4.93096e+00,    3.43018e+01
   6.22000e+03,    4.84821e+00,    4.93082e+00,    3.43096e+01
   6.23000e+03,    4.84832e+00,    4.93069e+00,    3.43174e+01
   6.24000e+03,    4.84843e+00,    4.93056e+00,    3.43251e+01
   6.25000e+03,    4.84852e+00,    4.93043e+00,    3.43329e+01
   6.26000e+03,    4.84861e+00,    4.93030e+00,    3.43406e+01
   6.27000e+03,    4.84869e+00,    4.93017e+00,    3.43484e+01
   6.28000e+03,    4.84876e+00,    4.93004e+00,    3.43561e+01
   6.29000e+03,    4.84881e+00,    4.92991e+00,    3.43638e+01
   6.30000e+03,    4.84886e+00,    4.92978e+00,    3.43715e+01
   6.31000e+03,    4.84890e+00,    4.92965e+00,    3.43792e+01
   6.32000e+03,    4.84893e+00,    4.92952e+00,    3.43869e+01
   6.33000e+03,    4.84896e+00,    4.92939e+00,    3.43946e+01
   6.34000e+03,    4.84897e+00,    4.92927e+00,    3.44022e+01
   6.35000e+03,    4.84897e+00,    4.92914e+00,    3.44099e+01
   6.36000e+03,    4.84896e+00,    4.92902e+00,    3.44175e+01
   6.37000e+03,    4.84895e+00,    4.92889e+00,    3.44251e+01
   6.38000e+03,    4.84892e+00,    4.92876e+00,    3.44327e+01
   6.39000e+03,    4.84889e+00,    4.92864e+00,    3.44403e+01
   6.40000e+03,    4.84884e+00,    4.92851e+00,    3.44479e+01
   6.41000e+03,    4.84879e+00,    4.92839e+00,    3.44555e+01
   6.42000e+03,    4.84872e+00,    4.92827e+00,    3.44630e+01
   6.43000e+03,    4.84865e+00,    4.92814e+00,    3.44706e+01
   6.44000e+03,    4.84857e+00,    4.92802e+00,    3.44781e+01
   6.45000e+03,    4.84848e+00,    4.92790e+00,    3.44856e+01
   6.46000e+03,    4.84838e+00,    4.92777e+00,    3.44931e+01
   6.47000e+03,    4.84827e+00,    4.92765e+00,    3.45006e+01
   6.48000e+03,    4.84815e+00,    4.92753e+00,    3.45081e+01
   6.49000e+03,    4.84802e+00,    4.92741e+00,    3.45156e+01
   6.50000e+03,    4.84788e+00,    4.92728e+00,    3.45231e+01
   6.51000e+03,    4.84773e+00,    4.92716e+00,    3.45305e+01
   6.52000e+03,    4.84757e+00,    4.92704e+00,    3.45380e+01
   6.53000e+03,    4.84740e+00,    4.92692e+00,    3.45454e+01
   6.54000e+03,    4.84723e+00,    4.92680e+00,    3.45528e+01
   6.55000e+03,    4.84704e+00,    4.92667e+00,    3.45602e+01
   6.56000e+03,    4.84685e+00,    4.92655e+00,    3.45676e+01
   6.57000e+03,    4.84664e+00,    4.92643e+00,    3.45750e+01
   6.58000e+03,    4.84643e+00,    4.92631e+00,    3.45824e+01
   6.59000e+03,    4.84620e+00,    4.92619e+00,    3.45897e+01
   6.60000e+03,    4.84597e+00,    4.92607e+00,    3.45971e+01
   6.61000e+03,    4.84573e+00,    4.92595e+00,    3.46044e+01
   6.62000e+03,    4.84547e+00,    4.92582e+00,    3.46117e+01
   6.63000e+03,    4.84521e+00,    4.92570e+00,    3.46190e+01
   6.64000e+03,    4.84494e+00,    4.92558e+00,    3.46263e+01
   6.65000e+03,    4.84466e+00,    4.92546e+00,    3.46336e+01
   6.66000e+03,    4.84437e+00,    4.92534e+00,    3.46409e+01
   6.67000e+03,    4.84407e+00,    4.92522e+00,    3.46482e+01
   6.68000e+03,    4.84376e+00,    4.92509e+00,    3.46554e+01
   6.69000e+03,    4.84345e+00,    4.92497e+00,    3.46627e+01
   6.70000e+03,    4.84312e+00,    4.92485e+00,    3.46699e+01
   6.71000e+03,    4.84278e+00,    4.92473e+00,    3.46771e+01
   6.72000e+03,    4.84244e+00,    4.92461e+00,    3.46844e+01
   6.73000e+03,    4.84208e+00,    4.92448e+00,    3.46916e+01
   6.74000e+03,    4.84172e+00,    4.92436e+00,    3.46987e+01
   6.75000e+03,    4.84135e+00,    4.92424e+00,    3.47059e+01
   6.76000e+03,    4.84096e+00,    4.92412e+00,    3.47131e+01
   6.77000e+03,    4.84057e+00,    4.92399e+00,    3.47202e+01
   6.78000e+03,    4.84017e+00,    4.92387e+00,    3.47274e+01
   6.79000e+03,    4.83976e+00,    4.92375e+00,    3.47345e+01
   6.80000e+03,    4.83934e+00,    4.92362e+00,    3.47416e+01
   6.81000e+03,    4.83891e+00,    4.92350e+00,    3.47488e+01
   6.82000e+03,    4.83848e+00,    4.92337e+00,    3.47559e+01
   6.83000e+03,    4.83803e+00,    4.92325e+00,    3.47629e+01
   6.84000e+03,    4.83758e+00,    4.92312e+00,    3.47700e+01
   6.85000e+03,    4.83711e+00,    4.92300e+00,    3.47771e+01
   6.86000e+03,    4.83664e+00,    4.92287e+00,    3.47841e+01
   6.87000e+03,    4.83615e+00,    4.92275e+00,    3.47912e+01
   6.88000e+03,    4.83566e+00,    4.92262e+00,    3.47982e+01
   6.89000e+03,    4.83516e+00,    4.92249e+00,    3.48052e+01
   6.90000e+03,    4.83465e+00,    4.92237e+00,    3.48123e+01
   6.91000e+03,    4.83413e+00,    4.92224e+00,    3.48193e+01
   6.92000e+03,    4.83361e+00,    4.92211e+00,    3.48263e+01
   6.93000e+03,    4.83307e+00,    4.92198e+00,    3.48332e+01
   6.94000e+03,    4.83252e+00,    4.92186e+00,    3.48402e+01
   6.95000e+03,    4.83197e+00,    4.92173e+00,    3.48472e+01
   6.96000e+03,    4.83141e+00,    4.92160e+00,    3.48541e+01
   6.97000e+03,    4.83084e+00,    4.92147e+00,    3.48610e+01
   6.98000e+03,    4.83026e+00,    4.92134e+00,    3.48680e+01
   6.99000e+03,    4.82967e+00,    4.92121e+00,    3.48749e+01
   7.00000e+03,    4.82907e+00,    4.92108e+00,    3.48818e+01
   7.01000e+03,    4.82846e+00,    4.92094e+00,    3.48887e+01
   7.02000e+03,    4.82785e+00,    4.92081e+00,    3.48956e+01
   7.03000e+03,    4.82722e+00,    4.92068e+00,    3.49024e+01
   7.04000e+03,    4.82659e+00,    4.92055e+00,    3.49093e+01
   7.05000e+03,    4.82595e+00,    4.92041e+00,    3.49161e+01
   7.06000e+03,    4.82530e+00,    4.92028e+00,    3.49230e+01
   7.07000e+03,    4.82464e+00,    4.92014e+00,    3.49298e+01
   7.08000e+03,    4.82397e+00,    4.92001e+00,    3.49366e+01
   7.09000e+03,    4.82330e+00,    4.91987e+00,    3.49434e+01
   7.10000e+03,    4.82261e+00,    4.91974e+00,    3.49502e+01
   7.11000e+03,    4.82192e+00,    4.91960e+00,    3.49570e+01
   7.12000e+03,    4.82122e+00,    4.91946e+00,    3.49638e+01
   7.13000e+03,    4.82051e+00,    4.91932e+00,    3.49706e+01
   7.14000e+03,    4.81980e+00,    4.91918e+00,    3.49773e+01
   7.15000e+03,    4.81907e+00,    4.91904e+00,    3.49841e+01
   7.16000e+03,    4.81834e+00,    4.91890e+00,    3.49908e+01
   7.17000e+03,    4.81759e+00,    4.91876e+00,    3.49975e+01
   7.18000e+03,    4.81684e+00,    4.91862e+00,    3.50042e+01
   7.19000e+03,    4.81608e+00,    4.91848e+00,    3.50109e+01
   7.20000e+03,    4.81532e+00,    4.91834e+00,    3.50176e+01
   7.21000e+03,    4.81454e+00,    4.91819e+00,    3.50243e+01
   7.22000e+03,    4.81376e+00,    4.91805e+00,    3.50310e+01
   7.23000e+03,    4.81297e+00,    4.91790e+00,    3.50377e+01
   7.24000e+03,    4.81217e+00,    4.91776e+00,    3.50443e+01
   7.25000e+03,    4.81136e+00,    4.91761e+00,    3.50509e+01
   7.26000e+03,    4.81055e+00,    4.91747e+00,    3.50576e+01
   7.27000e+03,    4.80972e+00,    4.91732e+00,    3.50642e+01
   7.28000e+03,    4.80889e+00,    4.91717e+00,    3.50708e+01
   7.29000e+03,    4.80805e+00,    4.91702e+00,    3.50774e+01
   7.30000e+03,    4.80720e+00,    4.91687e+00,    3.50840e+01
   7.31000e+03,    4.80635e+00,    4.91672e+00,    3.50906e+01
   7.32000e+03,    4.80549e+00,    4.91657e+00,    3.50972e+01
   7.33000e+03,    4.80462e+00,    4.91642e+00,    3.51037e+01
   7.34000e+03,    4.80374e+00,    4.91626e+00,    3.51103e+01
   7.35000e+03,    4.80285e+00,    4.91611e+00,    3.51168e+01
   7.36000e+03,    4.80196e+00,    4.91596e+00,    3.51233e+01
   7.37000e+03,    4.80106e+00,    4.91580e+00,    3.51299e+01
   7.38000e+03,    4.80015e+00,    4.91564e+00,    3.51364e+01
   7.39000e+03,    4.79923e+00,    4.91549e+00,    3.51429e+01
   7.40000e+03,    4.79831e+00,    4.91533e+00,    3.51493e+01
   7.41000e+03,    4.79737e+00,    4.91517e+00,    3.51558e+01
   7.42000e+03,    4.79643e+00,    4.91501e+00,    3.51623e+01
   7.43000e+03,    4.79549e+00,    4.91485e+00,    3.51688e+01
   7.44000e+03,    4.79453e+00,    4.91469e+00,    3.51752e+01
   7.45000e+03,    4.79357e+00,    4.91453e+00,    3.51816e+01
   7.46000e+03,    4.79260e+00,    4.91437e+00,    3.51881e+01
   7.47000e+03,    4.79163e+00,    4.91420e+00,    3.51945e+01
   7.48000e+03,    4.79064e+00,    4.91404e+00,    3.52009e+01
   7.49000e+03,    4.78965e+00,    4.91387e+00,    3.52073e+01
   7.50000e+03,    4.78865e+00,    4.91371e+00,    3.52137e+01
   7.51000e+03,    4.78765e+00,    4.91354e+00,    3.52201e+01
   7.52000e+03,    4.78663e+00,    4.91337e+00,    3.52264e+01
   7.53000e+03,    4.78561e+00,    4.91320e+00,    3.52328e+01
   7.54000e+03,    4.78459e+00,    4.91303e+00,    3.52392e+01
   7.55000e+03,    4.78355e+00,    4.91286e+00,    3.52455e+01
   7.56000e+03,    4.78251e+00,    4.91269e+00,    3.52518e+01
   7.57000e+03,    4.78146e+00,    4.91252e+00,    3.52581e+01
   7.58000e+03,    4.78041e+00,    4.91234e+00,    3.52645e+01
   7.59000e+03,    4.77935e+00,    4.91217e+00,    3.52708e+01
   7.60000e+03,    4.77828e+00,    4.91199e+00,    3.52771e+01
   7.61000e+03,    4.77720e+00,    4.91182e+00,    3.52833e+01
   7.62000e+03,    4.77612e+00,    4.91164e+00,    3.52896e+01
   7.63000e+03,    4.77503e+00,    4.91146e+00,    3.52959e+01
   7.64000e+03,    4.77393e+00,    4.91128e+00,    3.53021e+01
   7.65000e+03,    4.77283e+00,    4.91110e+00,    3.53084e+01
   7.66000e+03,    4.77172e+00,    4.91092e+00,    3.53146e+01
   7.67000e+03,    4.77060e+00,    4.91074e+00,    3.53208e+01
   7.68000e+03,    4.76948e+00,    4.91055e+00,    3.53270e+01
   7.69000e+03,    4.76835e+00,    4.91037e+00,    3.53332e+01
   7.70000e+03,    4.76721e+00,    4.91019e+00,    3.53394e+01
   7.71000e+03,    4.76607e+00,    4.91000e+00,    3.53456e+01
   7.72000e+03,    4.76492e+00,    4.90981e+00,    3.53518e+01
   7.73000e+03,    4.76376e+00,    4.90962e+00,    3.53580e+01
   7.74000e+03,    4.76260e+00,    4.90943e+00,    3.53641e+01
   7.75000e+03,    4.76143e+00,    4.90924e+00,    3.53703e+01
   7.76000e+03,    4.76025e+00,    4.90905e+00,    3.53764e+01
   7.77000e+03,    4.75907e+00,    4.90886e+00,    3.53825e+01
   7.78000e+03,    4.75788e+00,    4.90867e+00,    3.53887e+01
   7.79000e+03,    4.75669e+00,    4.90847e+00,    3.53948e+01
   7.80000e+03,    4.75549e+00,    4.90828e+00,    3.54009e+01
   7.81000e+03,    4.75428e+00,    4.90808e+00,    3.54070e+01
   7.82000e+03,    4.75307e+00,    4.90788e+00,    3.54131e+01
   7.83000e+03,    4.75185e+00,    4.90769e+00,    3.54191e+01
   7.84000e+03,    4.75062e+00,    4.90749e+00,    3.54252e+01
   7.85000e+03,    4.74939e+00,    4.90729e+00,    3.54312e+01
   7.86000e+03,    4.74815e+00,    4.90708e+00,    3.54373e+01
   7.87000e+03,    4.74691e+00,    4.90688e+00,    3.54433e+01
   7.88000e+03,    4.74566e+00,    4.90668e+00,    3.54494e+01
   7.89000e+03,    4.74441e+00,    4.90647e+00,    3.54554e+01
   7.90000e+03,    4.74314e+00,    4.90627e+00,    3.54614e+01
   7.91000e+03,    4.74188e+00,    4.90606e+00,    3.54674e+01
   7.92000e+03,    4.74060e+00,    4.90585e+00,    3.54734e+01
   7.93000e+03,    4.73932e+00,    4.90564e+00,    3.54794e+01
   7.94000e+03,    4.73804e+00,    4.90543e+00,    3.54853e+01
   7.95000e+03,    4.73675e+00,    4.90522e+00,    3.54913e+01
   7.96000e+03,    4.73545e+00,    4.90501e+00,    3.54972e+01
   7.97000e+03,    4.73415e+00,    4.90479e+00,    3.55032e+01
   7.98000e+03,    4.73284e+00,    4.90458e+00,    3.55091e+01
   7.99000e+03,    4.73153e+00,    4.90436e+00,    3.55150e+01
   8.00000e+03,    4.73021e+00,    4.90415e+00,    3.55210e+01
   8.01000e+03,    4.72888e+00,    4.90393e+00,    3.55269e+01
   8.02000e+03,    4.72755e+00,    4.90371e+00,    3.55328e+01
   8.03000e+03,    4.72622e+00,    4.90349e+00,    3.55387e+01
   8.04000e+03,    4.72488e+00,    4.90327e+00,    3.55445e+01
   8.05000e+03,    4.72353e+00,    4.90305e+00,    3.55504e+01
   8.06000e+03,    4.72218e+00,    4.90282e+00,    3.55563e+01
   8.07000e+03,    4.72082e+00,    4.90260e+00,    3.55621e+01
   8.08000e+03,    4.71946e+00,    4.90237e+00,    3.55680e+01
   8.09000e+03,    4.71809e+00,    4.90215e+00,    3.55738e+01
   8.10000e+03,    4.71672e+00,    4.90192e+00,    3.55796e+01
   8.11000e+03,    4.71534e+00,    4.90169e+00,    3.55855e+01
   8.12000e+03,    4.71395e+00,    4.90146e+00,    3.55913e+01
   8.13000e+03,    4.71256e+00,    4.90123e+00,    3.55971e+01
   8.14000e+03,    4.71117e+00,    4.90099e+00,    3.56029e+01
   8.15000e+03,    4.70977e+00,    4.90076e+00,    3.56086e+01
   8.16000e+03,    4.70837e+00,    4.90052e+00,    3.56144e+01
   8.17000e+03,    4.70696e+00,    4.90029e+00,    3.56202e+01
   8.18000e+03,    4.70554e+00,    4.90005e+00,    3.56259e+01
   8.19000e+03,    4.70412e+00,    4.89981e+00,    3.56317e+01
   8.20000e+03,    4.70270e+00,    4.89957e+00,    3.56374e+01
   8.21000e+03,    4.70127e+00,    4.89933e+00,    3.56432e+01
   8.22000e+03,    4.69984e+00,    4.89909e+00,    3.56489e+01
   8.23000e+03,    4.69840e+00,    4.89885e+00,    3.56546e+01
   8.24000e+03,    4.69695e+00,    4.89860e+00,    3.56603e+01
   8.25000e+03,    4.69550e+00,    4.89836e+00,    3.56660e+01
   8.26000e+03,    4.69405e+00,    4.89811e+00,    3.56717e+01
   8.27000e+03,    4.69259e+00,    4.89786e+00,    3.56774e+01
   8.28000e+03,    4.69113e+00,    4.89762e+00,    3.56830e+01
   8.29000e+03,    4.68966e+00,    4.89737e+00,    3.56887e+01
   8.30000e+03,    4.68819e+00,    4.89711e+00,    3.56943e+01
   8.31000e+03,    4.68671e+00,    4.89686e+00,    3.57000e+01
   8.32000e+03,    4.68523e+00,    4.89661e+00,    3.57056e+01
   8.33000e+03,    4.68375e+00,    4.89635e+00,    3.57113e+01
   8.34000e+03,    4.68226e+00,    4.89610e+00,    3.57169e+01
   8.35000e+03,    4.68076e+00,    4.89584e+00,    3.57225e+01
   8.36000e+03,    4.67926e+00,    4.89558e+00,    3.57281e+01
   8.37000e+03,    4.67776e+00,    4.89532e+00,    3.57337e+01
   8.38000e+03,    4.67625e+00,    4.89506e+00,    3.57393e+01
   8.39000e+03,    4.67474e+00,    4.89480e+00,    3.57448e+01
   8.40000e+03,    4.67322e+00,    4.89454e+00,    3.57504e+01
   8.41000e+03,    4.67170e+00,    4.89427e+00,    3.57560e+01
   8.42000e+03,    4.67017e+00,    4.89401e+00,    3.57615e+01
   8.43000e+03,    4.66864e+00,    4.89374e+00,    3.57671e+01
   8.44000e+03,    4.66711e+00,    4.89348e+00,    3.57726e+01
   8.45000e+03,    4.66557e+00,    4.89321e+00,    3.57781e+01
   8.46000e+03,    4.66403e+00,    4.89294e+00,    3.57836e+01
   8.47000e+03,    4.66248e+00,    4.89267e+00,    3.57891e+01
   8.48000e+03,    4.66093e+00,    4.89239e+00,    3.57946e+01
   8.49000e+03,    4.65938e+00,    4.89212e+00,    3.58001e+01
   8.50000e+03,    4.65782e+00,    4.89184e+00,    3.58056e+01
   8.51000e+03,    4.65626e+00,    4.89157e+00,    3.58111e+01
   8.52000e+03,    4.65469e+00,    4.89129e+00,    3.58166e+01
   8.53000e+03,    4.65312e+00,    4.89101e+00,    3.58220e+01
   8.54000e+03,    4.65155e+00,    4.89073e+00,    3.58275e+01
   8.55000e+03,    4.64997e+00,    4.89045e+00,    3.58329e+01
   8.56000e+03,    4.64839e+00,    4.89017e+00,    3.58384e+01
   8.57000e+03,    4.64680e+00,    4.88989e+00,    3.58438e+01
   8.58000e+03,    4.64521e+00,    4.88960e+00,    3.58492e+01
   8.59000e+03,    4.64362e+00,    4.88932e+00,    3.58546e+01
   8.60000e+03,    4.64202e+00,    4.88903e+00,    3.58600e+01
   8.61000e+03,    4.64042e+00,    4.88874e+00,    3.58654e+01
   8.62000e+03,    4.63882e+00,    4.88846e+00,    3.58708e+01
   8.63000e+03,    4.63721e+00,    4.88817e+00,    3.58762e+01
   8.64000e+03,    4.63560e+00,    4.88787e+00,    3.58815e+01
   8.65000e+03,    4.63398e+00,    4.88758e+00,    3.58869e+01
   8.66000e+03,    4.63236e+00,    4.88729e+00,    3.58922e+01
   8.67000e+03,    4.63074e+00,    4.88699e+00,    3.58976e+01
   8.68000e+03,    4.62911e+00,    4.88670e+00,    3.59029e+01
   8.69000e+03,    4.62749e+00,    4.88640e+00,    3.59083e+01
   8.70000e+03,    4.62585e+00,    4.88610e+00,    3.59136e+01
   8.71000e+03,    4.62422e+00,    4.88580e+00,    3.59189e+01
   8.72000e+03,    4.62258e+00,    4.88550e+00,    3.59242e+01
   8.73000e+03,    4.62093e+00,    4.88520e+00,    3.59295e+01
   8.74000e+03,    4.61929e+00,    4.88489e+00,    3.59348e+01
   8.75000e+03,    4.61764e+00,    4.88459e+00,    3.59401e+01
   8.76000e+03,    4.61599e+00,    4.88428e+00,    3.59453e+01
   8.77000e+03,    4.61433e+00,    4.88398e+00,    3.59506e+01
   8.78000e+03,    4.61267e+00,    4.88367e+00,    3.59559e+01
   8.79000e+03,    4.61101e+00,    4.88336e+00,    3.59611e+01
   8.80000e+03,    4.60934e+00,    4.88305e+00,    3.59664e+01
   8.81000e+03,    4.60767e+00,    4.88274e+00,    3.59716e+01
   8.82000e+03,    4.60600e+00,    4.88243e+00,    3.59768e+01
   8.83000e+03,    4.60433e+00,    4.88211e+00,    3.59820e+01
   8.84000e+03,    4.60265e+00,    4.88180e+00,    3.59872e+01
   8.85000e+03,    4.60097e+00,    4.88148e+00,    3.59924e+01
   8.86000e+03,    4.59928e+00,    4.88116e+00,    3.59976e+01
   8.87000e+03,    4.59760e+00,    4.88084e+00,    3.60028e+01
   8.88000e+03,    4.59591e+00,    4.88052e+00,    3.60080e+01
   8.89000e+03,    4.59421e+00,    4.88020e+00,    3.60132e+01
   8.90000e+03,    4.59252e+00,    4.87988e+00,    3.60183e+01
   8.91000e+03,    4.59082e+00,    4.87956e+00,    3.60235e+01
   8.92000e+03,    4.58912e+00,    4.87923e+00,    3.60286e+01
   8.93000e+03,    4.58741e+00,    4.87891e+00,    3.60338e+01
   8.94000e+03,    4.58571e+00,    4.87858e+00,    3.60389e+01
   8.95000e+03,    4.58400e+00,    4.87825e+00,    3.60440e+01
   8.96000e+03,    4.58229e+00,    4.87792e+00,    3.60492e+01
   8.97000e+03,    4.58057e+00,    4.87759e+00,    3.60543e+01
   8.98000e+03,    4.57885e+00,    4.87726e+00,    3.60594e+01
   8.99000e+03,    4.57713e+00,    4.87693e+00,    3.60645e+01
   9.00000e+03,    4.57541e+00,    4.87659e+00,    3.60696e+01
   9.01000e+03,    4.57368e+00,    4.87626e+00,    3.60746e+01
   9.02000e+03,    4.57195e+00,    4.87592e+00,    3.60797e+01
   9.03000e+03,    4.57022e+00,    4.87558e+00,    3.60848e+01
   9.04000e+03,    4.56849e+00,    4.87524e+00,    3.60898e+01
   9.05000e+03,    4.56675e+00,    4.87490e+00,    3.60949e+01
   9.06000e+03,    4.56502e+00,    4.87456e+00,    3.60999e+01
   9.07000e+03,    4.56328e+00,    4.87422e+00,    3.61050e+01
   9.08000e+03,    4.56153e+00,    4.87388e+00,    3.61100e+01
   9.09000e+03,    4.55979e+00,    4.87353e+00,    3.61150e+01
   9.10000e+03,    4.55804e+00,    4.87319e+00,    3.61200e+01
   9.11000e+03,    4.55629e+00,    4.87284e+00,    3.61250e+01
   9.12000e+03,    4.55453e+00,    4.87249e+00,    3.61300e+01
   9.13000e+03,    4.55278e+00,    4.87214e+00,    3.61350e+01
   9.14000e+03,    4.55102e+00,    4.87179e+00,    3.61400e+01
   9.15000e+03,    4.54926e+00,    4.87144e+00,    3.61450e+01
   9.16000e+03,    4.54750e+00,    4.87109e+00,    3.61499e+01
   9.17000e+03,    4.54574e+00,    4.87073e+00,    3.61549e+01
   9.18000e+03,    4.54397e+00,    4.87038e+00,    3.61599e+01
   9.19000e+03,    4.54220e+00,    4.87002e+00,    3.61648e+01
   9.20000e+03,    4.54043e+00,    4.86967e+00,    3.61697e+01
   9.21000e+03,    4.53866e+00,    4.86931e+00,    3.61747e+01
   9.22000e+03,    4.53688e+00,    4.86895e+00,    3.61796e+01
   9.23000e+03,    4.53511e+00,    4.86859e+00,    3.61845e+01
   9.24000e+03,    4.53333e+00,    4.86823e+00,    3.61894e+01
   9.25000e+03,    4.53155e+00,    4.86786e+00,    3.61943e+01
   9.26000e+03,    4.52977e+00,    4.86750e+00,    3.61992e+01
   9.27000e+03,    4.52798e+00,    4.86713e+00,    3.62041e+01
   9.28000e+03,    4.52619e+00,    4.86677e+00,    3.62090e+01
   9.29000e+03,    4.52441e+00,    4.86640e+00,    3.62139e+01
   9.30000e+03,    4.52262e+00,    4.86603e+00,    3.62187e+01
   9.31000e+03,    4.52082e+00,    4.86566e+00,    3.62236e+01
   9.32000e+03,    4.51903e+00,    4.86529e+00,    3.62284e+01
   9.33000e+03,    4.51723e+00,    4.86492e+00,    3.62333e+01
   9.34000e+03,    4.51543e+00,    4.86454e+00,    3.62381e+01
   9.35000e+03,    4.51364e+00,    4.86417e+00,    3.62430e+01
   9.36000e+03,    4.51183e+00,    4.86379e+00,    3.62478e+01
   9.37000e+03,    4.51003e+00,    4.86342e+00,    3.62526e+01
   9.38000e+03,    4.50823e+00,    4.86304e+00,    3.62574e+01
   9.39000e+03,    4.50642e+00,    4.86266e+00,    3.62622e+01
   9.40000e+03,    4.50461e+00,    4.86228e+00,    3.62670e+01
   9.41000e+03,    4.50280e+00,    4.86190e+00,    3.62718e+01
   9.42000e+03,    4.50099e+00,    4.86152e+00,    3.62766e+01
   9.43000e+03,    4.49918e+00,    4.86113e+00,    3.62814e+01
   9.44000e+03,    4.49736e+00,    4.86075e+00,    3.62861e+01
   9.45000e+03,    4.49555e+00,    4.86037e+00,    3.62909e+01
   9.46000e+03,    4.49373e+00,    4.85998e+00,    3.62956e+01
   9.47000e+03,    4.49191e+00,    4.85959e+00,    3.63004e+01
   9.48000e+03,    4.49009e+00,    4.85920e+00,    3.63051e+01
   9.49000e+03,    4.48826e+00,    4.85881e+00,    3.63099e+01
   9.50000e+03,    4.48644e+00,    4.85842e+00,    3.63146e+01
   9.51000e+03,    4.48462e+00,    4.85803e+00,    3.63193e+01
   9.52000e+03,    4.48279e+00,    4.85764e+00,    3.63240e+01
   9.53000e+03,    4.48096e+00,    4.85724e+00,    3.63287e+01
   9.54000e+03,    4.47913e+00,    4.85685e+00,    3.63334e+01
   9.55000e+03,    4.47730e+00,    4.85645e+00,    3.63381e+01
   9.56000e+03,    4.47547e+00,    4.85605e+00,    3.63428e+01
   9.57000e+03,    4.47364e+00,    4.85565e+00,    3.63475e+01
   9.58000e+03,    4.47180e+00,    4.85525e+00,    3.63521e+01
   9.59000e+03,    4.46996e+00,    4.85485e+00,    3.63568e+01
   9.60000e+03,    4.46813e+00,    4.85445e+00,    3.63615e+01
   9.61000e+03,    4.46629e+00,    4.85405e+00,    3.63661e+01
   9.62000e+03,    4.46445e+00,    4.85364e+00,    3.63708e+01
   9.63000e+03,    4.46261e+00,    4.85324e+00,    3.63754e+01
   9.64000e+03,    4.46077e+00,    4.85283e+00,    3.63800e+01
   9.65000e+03,    4.45892e+00,    4.85243e+00,    3.63846e+01
   9.66000e+03,    4.45708e+00,    4.85202e+00,    3.63893e+01
   9.67000e+03,    4.45523e+00,    4.85161e+00,    3.63939e+01
   9.68000e+03,    4.45339e+00,    4.85120e+00,    3.63985e+01
   9.69000e+03,    4.45154e+00,    4.85079e+00,    3.64031e+01
   9.70000e+03,    4.44969e+00,    4.85037e+00,    3.64077e+01
   9.71000e+03,    4.44784e+00,    4.84996e+00,    3.64123e+01
   9.72000e+03,    4.44599e+00,    4.84955e+00,    3.64168e+01
   9.73000e+03,    4.44414e+00,    4.84913e+00,    3.64214e+01
   9.74000e+03,    4.44229e+00,    4.84871e+00,    3.64260e+01
   9.75000e+03,    4.44043e+00,    4.84829e+00,    3.64305e+01
   9.76000e+03,    4.43858e+00,    4.84788e+00,    3.64351e+01
   9.77000e+03,    4.43672e+00,    4.84746e+00,    3.64396e+01
   9.78000e+03,    4.43487e+00,    4.84704e+00,    3.64442e+01
   9.79000e+03,    4.43301e+00,    4.84661e+00,    3.64487e+01
   9.80000e+03,    4.43115e+00,    4.84619e+00,    3.64532e+01
   9.81000e+03,    4.42929e+00,    4.84577e+00,    3.64577e+01
   9.82000e+03,    4.42743e+00,    4.84534e+00,    3.64622e+01
   9.83000e+03,    4.42557e+00,    4.84492e+00,    3.64667e+01
   9.84000e+03,    4.42371e+00,    4.84449e+00,    3.64712e+01
   9.85000e+03,    4.42185e+00,    4.84406e+00,    3.64757e+01
   9.86000e+03,    4.41999e+00,    4.84363e+00,    3.64802e+01
   9.87000e+03,    4.41812e+00,    4.84320e+00,    3.64847e+01
   9.88000e+03,    4.41626e+00,    4.84277e+00,    3.64892e+01
   9.89000e+03,    4.41439e+00,    4.84234e+00,    3.64936e+01
   9.90000e+03,    4.41253e+00,    4.84190e+00,    3.64981e+01
   9.91000e+03,    4.41066e+00,    4.84147e+00,    3.65026e+01
   9.92000e+03,    4.40879e+00,    4.84103e+00,    3.65070e+01
   9.93000e+03,    4.40693e+00,    4.84060e+00,    3.65114e+01
   9.94000e+03,    4.40506e+00,    4.84016e+00,    3.65159e+01
   9.95000e+03,    4.40319e+00,    4.83972e+00,    3.65203e+01
   9.96000e+03,    4.40132e+00,    4.83928e+00,    3.65247e+01
   9.97000e+03,    4.39945e+00,    4.83884e+00,    3.65291e+01
   9.98000e+03,    4.39758e+00,    4.83840e+00,    3.65336e+01
   9.99000e+03,    4.39571e+00,    4.83796e+00,    3.65380e+01
   1.00000e+04,    4.39384e+00,    4.83752e+00,    3.65424e+01
