# Statistical Thermodynamics
# Computation done on 11-Feb-2020 23:49:38
# Species OH(X)
# Standard state T =    2.98150e+02 (K) P =    1.01325e+05 (Pa)
# C_P           2.91023e+01 (J/K mol)
# H             3.73000e+04 (J/mol)
# S             1.83998e+02 (J/K mol)
# C_P/R         3.50020e+00
# H/RT          1.50467e+01
# S/R           2.21299e+01
#     T            C_P/R           H/RT            S/R
   2.00000e+02,    3.50044e+00,    2.07130e+01,    2.07323e+01
   2.10000e+02,    3.50040e+00,    1.98934e+01,    2.09031e+01
   2.20000e+02,    3.50036e+00,    1.91482e+01,    2.10659e+01
   2.30000e+02,    3.50033e+00,    1.84679e+01,    2.12215e+01
   2.40000e+02,    3.50030e+00,    1.78443e+01,    2.13705e+01
   2.50000e+02,    3.50028e+00,    1.72705e+01,    2.15134e+01
   2.60000e+02,    3.50025e+00,    1.67409e+01,    2.16507e+01
   2.70000e+02,    3.50024e+00,    1.62505e+01,    2.17828e+01
   2.80000e+02,    3.50022e+00,    1.57951e+01,    2.19100e+01
   2.90000e+02,    3.50021e+00,    1.53712e+01,    2.20329e+01
   3.00000e+02,    3.50020e+00,    1.49755e+01,    2.21515e+01
   3.10000e+02,    3.50019e+00,    1.46053e+01,    2.22663e+01
   3.20000e+02,    3.50019e+00,    1.42582e+01,    2.23774e+01
   3.30000e+02,    3.50020e+00,    1.39322e+01,    2.24851e+01
   3.40000e+02,    3.50021e+00,    1.36254e+01,    2.25896e+01
   3.50000e+02,    3.50023e+00,    1.33361e+01,    2.26911e+01
   3.60000e+02,    3.50026e+00,    1.30629e+01,    2.27897e+01
   3.70000e+02,    3.50031e+00,    1.28045e+01,    2.28856e+01
   3.80000e+02,    3.50037e+00,    1.25596e+01,    2.29790e+01
   3.90000e+02,    3.50045e+00,    1.23273e+01,    2.30699e+01
   4.00000e+02,    3.50056e+00,    1.21067e+01,    2.31585e+01
   4.10000e+02,    3.50069e+00,    1.18968e+01,    2.32449e+01
   4.20000e+02,    3.50085e+00,    1.16969e+01,    2.33293e+01
   4.30000e+02,    3.50105e+00,    1.15062e+01,    2.34117e+01
   4.40000e+02,    3.50129e+00,    1.13243e+01,    2.34922e+01
   4.50000e+02,    3.50158e+00,    1.11505e+01,    2.35709e+01
   4.60000e+02,    3.50191e+00,    1.09842e+01,    2.36478e+01
   4.70000e+02,    3.50230e+00,    1.08250e+01,    2.37231e+01
   4.80000e+02,    3.50275e+00,    1.06725e+01,    2.37969e+01
   4.90000e+02,    3.50327e+00,    1.05261e+01,    2.38691e+01
   5.00000e+02,    3.50386e+00,    1.03857e+01,    2.39399e+01
   5.10000e+02,    3.50452e+00,    1.02508e+01,    2.40093e+01
   5.20000e+02,    3.50527e+00,    1.01210e+01,    2.40773e+01
   5.30000e+02,    3.50610e+00,    9.99621e+00,    2.41441e+01
   5.40000e+02,    3.50702e+00,    9.87603e+00,    2.42097e+01
   5.50000e+02,    3.50803e+00,    9.76024e+00,    2.42740e+01
   5.60000e+02,    3.50915e+00,    9.64860e+00,    2.43372e+01
   5.70000e+02,    3.51036e+00,    9.54090e+00,    2.43994e+01
   5.80000e+02,    3.51168e+00,    9.43694e+00,    2.44604e+01
   5.90000e+02,    3.51311e+00,    9.33652e+00,    2.45205e+01
   6.00000e+02,    3.51465e+00,    9.23948e+00,    2.45795e+01
   6.10000e+02,    3.51631e+00,    9.14564e+00,    2.46376e+01
   6.20000e+02,    3.51808e+00,    9.05486e+00,    2.46948e+01
   6.30000e+02,    3.51996e+00,    8.96699e+00,    2.47511e+01
   6.40000e+02,    3.52197e+00,    8.88190e+00,    2.48066e+01
   6.50000e+02,    3.52410e+00,    8.79945e+00,    2.48612e+01
   6.60000e+02,    3.52634e+00,    8.71954e+00,    2.49150e+01
   6.70000e+02,    3.52871e+00,    8.64205e+00,    2.49681e+01
   6.80000e+02,    3.53120e+00,    8.56687e+00,    2.50204e+01
   6.90000e+02,    3.53381e+00,    8.49391e+00,    2.50719e+01
   7.00000e+02,    3.53655e+00,    8.42307e+00,    2.51228e+01
   7.10000e+02,    3.53940e+00,    8.35426e+00,    2.51730e+01
   7.20000e+02,    3.54237e+00,    8.28741e+00,    2.52225e+01
   7.30000e+02,    3.54545e+00,    8.22243e+00,    2.52714e+01
   7.40000e+02,    3.54865e+00,    8.15925e+00,    2.53197e+01
   7.50000e+02,    3.55197e+00,    8.09780e+00,    2.53673e+01
   7.60000e+02,    3.55540e+00,    8.03801e+00,    2.54144e+01
   7.70000e+02,    3.55894e+00,    7.97981e+00,    2.54609e+01
   7.80000e+02,    3.56258e+00,    7.92316e+00,    2.55068e+01
   7.90000e+02,    3.56634e+00,    7.86798e+00,    2.55522e+01
   8.00000e+02,    3.57019e+00,    7.81424e+00,    2.55971e+01
   8.10000e+02,    3.57414e+00,    7.76187e+00,    2.56415e+01
   8.20000e+02,    3.57819e+00,    7.71082e+00,    2.56854e+01
   8.30000e+02,    3.58234e+00,    7.66106e+00,    2.57288e+01
   8.40000e+02,    3.58657e+00,    7.61252e+00,    2.57717e+01
   8.50000e+02,    3.59090e+00,    7.56519e+00,    2.58142e+01
   8.60000e+02,    3.59531e+00,    7.51900e+00,    2.58562e+01
   8.70000e+02,    3.59980e+00,    7.47392e+00,    2.58978e+01
   8.80000e+02,    3.60437e+00,    7.42993e+00,    2.59389e+01
   8.90000e+02,    3.60901e+00,    7.38697e+00,    2.59797e+01
   9.00000e+02,    3.61373e+00,    7.34502e+00,    2.60201e+01
   9.10000e+02,    3.61852e+00,    7.30404e+00,    2.60600e+01
   9.20000e+02,    3.62337e+00,    7.26401e+00,    2.60996e+01
   9.30000e+02,    3.62828e+00,    7.22489e+00,    2.61388e+01
   9.40000e+02,    3.63326e+00,    7.18665e+00,    2.61776e+01
   9.50000e+02,    3.63829e+00,    7.14927e+00,    2.62161e+01
   9.60000e+02,    3.64337e+00,    7.11273e+00,    2.62542e+01
   9.70000e+02,    3.64851e+00,    7.07699e+00,    2.62920e+01
   9.80000e+02,    3.65369e+00,    7.04203e+00,    2.63294e+01
   9.90000e+02,    3.65891e+00,    7.00783e+00,    2.63666e+01
   1.00000e+03,    3.66418e+00,    6.97437e+00,    2.64034e+01
   1.01000e+03,    3.66948e+00,    6.94162e+00,    2.64398e+01
   1.02000e+03,    3.67482e+00,    6.90956e+00,    2.64760e+01
   1.03000e+03,    3.68020e+00,    6.87819e+00,    2.65119e+01
   1.04000e+03,    3.68560e+00,    6.84746e+00,    2.65475e+01
   1.05000e+03,    3.69103e+00,    6.81737e+00,    2.65828e+01
   1.06000e+03,    3.69648e+00,    6.78791e+00,    2.66178e+01
   1.07000e+03,    3.70196e+00,    6.75904e+00,    2.66525e+01
   1.08000e+03,    3.70746e+00,    6.73076e+00,    2.66870e+01
   1.09000e+03,    3.71297e+00,    6.70305e+00,    2.67212e+01
   1.10000e+03,    3.71850e+00,    6.67589e+00,    2.67551e+01
   1.11000e+03,    3.72405e+00,    6.64927e+00,    2.67888e+01
   1.12000e+03,    3.72960e+00,    6.62318e+00,    2.68222e+01
   1.13000e+03,    3.73516e+00,    6.59760e+00,    2.68554e+01
   1.14000e+03,    3.74073e+00,    6.57251e+00,    2.68883e+01
   1.15000e+03,    3.74630e+00,    6.54791e+00,    2.69210e+01
   1.16000e+03,    3.75188e+00,    6.52378e+00,    2.69535e+01
   1.17000e+03,    3.75746e+00,    6.50012e+00,    2.69857e+01
   1.18000e+03,    3.76303e+00,    6.47690e+00,    2.70177e+01
   1.19000e+03,    3.76861e+00,    6.45412e+00,    2.70495e+01
   1.20000e+03,    3.77418e+00,    6.43176e+00,    2.70811e+01
   1.21000e+03,    3.77974e+00,    6.40982e+00,    2.71124e+01
   1.22000e+03,    3.78530e+00,    6.38828e+00,    2.71435e+01
   1.23000e+03,    3.79085e+00,    6.36714e+00,    2.71745e+01
   1.24000e+03,    3.79638e+00,    6.34639e+00,    2.72052e+01
   1.25000e+03,    3.80191e+00,    6.32601e+00,    2.72357e+01
   1.26000e+03,    3.80742e+00,    6.30600e+00,    2.72660e+01
   1.27000e+03,    3.81292e+00,    6.28635e+00,    2.72961e+01
   1.28000e+03,    3.81841e+00,    6.26705e+00,    2.73261e+01
   1.29000e+03,    3.82388e+00,    6.24809e+00,    2.73558e+01
   1.30000e+03,    3.82933e+00,    6.22946e+00,    2.73853e+01
   1.31000e+03,    3.83476e+00,    6.21116e+00,    2.74147e+01
   1.32000e+03,    3.84018e+00,    6.19318e+00,    2.74439e+01
   1.33000e+03,    3.84557e+00,    6.17550e+00,    2.74729e+01
   1.34000e+03,    3.85094e+00,    6.15814e+00,    2.75017e+01
   1.35000e+03,    3.85630e+00,    6.14107e+00,    2.75304e+01
   1.36000e+03,    3.86163e+00,    6.12429e+00,    2.75588e+01
   1.37000e+03,    3.86693e+00,    6.10779e+00,    2.75872e+01
   1.38000e+03,    3.87221e+00,    6.09157e+00,    2.76153e+01
   1.39000e+03,    3.87747e+00,    6.07562e+00,    2.76433e+01
   1.40000e+03,    3.88270e+00,    6.05994e+00,    2.76711e+01
   1.41000e+03,    3.88791e+00,    6.04452e+00,    2.76987e+01
   1.42000e+03,    3.89309e+00,    6.02935e+00,    2.77262e+01
   1.43000e+03,    3.89825e+00,    6.01443e+00,    2.77536e+01
   1.44000e+03,    3.90337e+00,    5.99975e+00,    2.77808e+01
   1.45000e+03,    3.90847e+00,    5.98531e+00,    2.78078e+01
   1.46000e+03,    3.91354e+00,    5.97110e+00,    2.78347e+01
   1.47000e+03,    3.91858e+00,    5.95712e+00,    2.78614e+01
   1.48000e+03,    3.92360e+00,    5.94337e+00,    2.78880e+01
   1.49000e+03,    3.92858e+00,    5.92983e+00,    2.79144e+01
   1.50000e+03,    3.93354e+00,    5.91650e+00,    2.79407e+01
   1.51000e+03,    3.93846e+00,    5.90339e+00,    2.79669e+01
   1.52000e+03,    3.94336e+00,    5.89047e+00,    2.79929e+01
   1.53000e+03,    3.94822e+00,    5.87776e+00,    2.80188e+01
   1.54000e+03,    3.95306e+00,    5.86525e+00,    2.80445e+01
   1.55000e+03,    3.95786e+00,    5.85293e+00,    2.80701e+01
   1.56000e+03,    3.96263e+00,    5.84080e+00,    2.80956e+01
   1.57000e+03,    3.96738e+00,    5.82885e+00,    2.81209e+01
   1.58000e+03,    3.97209e+00,    5.81708e+00,    2.81461e+01
   1.59000e+03,    3.97677e+00,    5.80549e+00,    2.81712e+01
   1.60000e+03,    3.98142e+00,    5.79408e+00,    2.81961e+01
   1.61000e+03,    3.98604e+00,    5.78283e+00,    2.82209e+01
   1.62000e+03,    3.99063e+00,    5.77176e+00,    2.82456e+01
   1.63000e+03,    3.99518e+00,    5.76084e+00,    2.82702e+01
   1.64000e+03,    3.99971e+00,    5.75009e+00,    2.82947e+01
   1.65000e+03,    4.00420e+00,    5.73950e+00,    2.83190e+01
   1.66000e+03,    4.00866e+00,    5.72906e+00,    2.83432e+01
   1.67000e+03,    4.01309e+00,    5.71877e+00,    2.83673e+01
   1.68000e+03,    4.01749e+00,    5.70863e+00,    2.83913e+01
   1.69000e+03,    4.02186e+00,    5.69863e+00,    2.84151e+01
   1.70000e+03,    4.02620e+00,    5.68878e+00,    2.84389e+01
   1.71000e+03,    4.03051e+00,    5.67907e+00,    2.84625e+01
   1.72000e+03,    4.03478e+00,    5.66950e+00,    2.84860e+01
   1.73000e+03,    4.03903e+00,    5.66006e+00,    2.85094e+01
   1.74000e+03,    4.04324e+00,    5.65076e+00,    2.85327e+01
   1.75000e+03,    4.04743e+00,    5.64159e+00,    2.85559e+01
   1.76000e+03,    4.05158e+00,    5.63254e+00,    2.85790e+01
   1.77000e+03,    4.05570e+00,    5.62362e+00,    2.86019e+01
   1.78000e+03,    4.05979e+00,    5.61482e+00,    2.86248e+01
   1.79000e+03,    4.06386e+00,    5.60615e+00,    2.86475e+01
   1.80000e+03,    4.06789e+00,    5.59759e+00,    2.86702e+01
   1.81000e+03,    4.07189e+00,    5.58915e+00,    2.86927e+01
   1.82000e+03,    4.07586e+00,    5.58082e+00,    2.87152e+01
   1.83000e+03,    4.07981e+00,    5.57261e+00,    2.87375e+01
   1.84000e+03,    4.08372e+00,    5.56451e+00,    2.87598e+01
   1.85000e+03,    4.08761e+00,    5.55652e+00,    2.87819e+01
   1.86000e+03,    4.09146e+00,    5.54863e+00,    2.88040e+01
   1.87000e+03,    4.09529e+00,    5.54085e+00,    2.88259e+01
   1.88000e+03,    4.09909e+00,    5.53317e+00,    2.88478e+01
   1.89000e+03,    4.10286e+00,    5.52559e+00,    2.88695e+01
   1.90000e+03,    4.10660e+00,    5.51811e+00,    2.88912e+01
   1.91000e+03,    4.11031e+00,    5.51073e+00,    2.89127e+01
   1.92000e+03,    4.11400e+00,    5.50345e+00,    2.89342e+01
   1.93000e+03,    4.11766e+00,    5.49626e+00,    2.89556e+01
   1.94000e+03,    4.12129e+00,    5.48916e+00,    2.89769e+01
   1.95000e+03,    4.12489e+00,    5.48215e+00,    2.89981e+01
   1.96000e+03,    4.12847e+00,    5.47524e+00,    2.90192e+01
   1.97000e+03,    4.13202e+00,    5.46841e+00,    2.90402e+01
   1.98000e+03,    4.13554e+00,    5.46167e+00,    2.90611e+01
   1.99000e+03,    4.13903e+00,    5.45502e+00,    2.90820e+01
   2.00000e+03,    4.14250e+00,    5.44844e+00,    2.91027e+01
   2.01000e+03,    4.14595e+00,    5.44196e+00,    2.91234e+01
   2.02000e+03,    4.14937e+00,    5.43555e+00,    2.91440e+01
   2.03000e+03,    4.15276e+00,    5.42922e+00,    2.91645e+01
   2.04000e+03,    4.15613e+00,    5.42297e+00,    2.91849e+01
   2.05000e+03,    4.15947e+00,    5.41680e+00,    2.92052e+01
   2.06000e+03,    4.16278e+00,    5.41071e+00,    2.92255e+01
   2.07000e+03,    4.16608e+00,    5.40468e+00,    2.92457e+01
   2.08000e+03,    4.16934e+00,    5.39874e+00,    2.92657e+01
   2.09000e+03,    4.17259e+00,    5.39286e+00,    2.92857e+01
   2.10000e+03,    4.17581e+00,    5.38706e+00,    2.93057e+01
   2.11000e+03,    4.17900e+00,    5.38133e+00,    2.93255e+01
   2.12000e+03,    4.18217e+00,    5.37566e+00,    2.93453e+01
   2.13000e+03,    4.18532e+00,    5.37007e+00,    2.93650e+01
   2.14000e+03,    4.18845e+00,    5.36454e+00,    2.93846e+01
   2.15000e+03,    4.19155e+00,    5.35908e+00,    2.94041e+01
   2.16000e+03,    4.19463e+00,    5.35368e+00,    2.94236e+01
   2.17000e+03,    4.19768e+00,    5.34834e+00,    2.94430e+01
   2.18000e+03,    4.20072e+00,    5.34307e+00,    2.94623e+01
   2.19000e+03,    4.20373e+00,    5.33786e+00,    2.94815e+01
   2.20000e+03,    4.20672e+00,    5.33271e+00,    2.95007e+01
   2.21000e+03,    4.20969e+00,    5.32763e+00,    2.95197e+01
   2.22000e+03,    4.21263e+00,    5.32260e+00,    2.95387e+01
   2.23000e+03,    4.21556e+00,    5.31763e+00,    2.95577e+01
   2.24000e+03,    4.21846e+00,    5.31271e+00,    2.95766e+01
   2.25000e+03,    4.22135e+00,    5.30786e+00,    2.95954e+01
   2.26000e+03,    4.22421e+00,    5.30305e+00,    2.96141e+01
   2.27000e+03,    4.22705e+00,    5.29831e+00,    2.96327e+01
   2.28000e+03,    4.22987e+00,    5.29362e+00,    2.96513e+01
   2.29000e+03,    4.23268e+00,    5.28898e+00,    2.96698e+01
   2.30000e+03,    4.23546e+00,    5.28439e+00,    2.96883e+01
   2.31000e+03,    4.23822e+00,    5.27986e+00,    2.97067e+01
   2.32000e+03,    4.24096e+00,    5.27537e+00,    2.97250e+01
   2.33000e+03,    4.24369e+00,    5.27094e+00,    2.97432e+01
   2.34000e+03,    4.24639e+00,    5.26655e+00,    2.97614e+01
   2.35000e+03,    4.24908e+00,    5.26222e+00,    2.97795e+01
   2.36000e+03,    4.25174e+00,    5.25793e+00,    2.97976e+01
   2.37000e+03,    4.25439e+00,    5.25369e+00,    2.98156e+01
   2.38000e+03,    4.25702e+00,    5.24950e+00,    2.98335e+01
   2.39000e+03,    4.25963e+00,    5.24535e+00,    2.98513e+01
   2.40000e+03,    4.26223e+00,    5.24125e+00,    2.98691e+01
   2.41000e+03,    4.26481e+00,    5.23719e+00,    2.98868e+01
   2.42000e+03,    4.26736e+00,    5.23318e+00,    2.99045e+01
   2.43000e+03,    4.26991e+00,    5.22921e+00,    2.99221e+01
   2.44000e+03,    4.27243e+00,    5.22528e+00,    2.99397e+01
   2.45000e+03,    4.27494e+00,    5.22140e+00,    2.99571e+01
   2.46000e+03,    4.27743e+00,    5.21756e+00,    2.99746e+01
   2.47000e+03,    4.27990e+00,    5.21376e+00,    2.99919e+01
   2.48000e+03,    4.28236e+00,    5.21000e+00,    3.00092e+01
   2.49000e+03,    4.28480e+00,    5.20627e+00,    3.00264e+01
   2.50000e+03,    4.28722e+00,    5.20259e+00,    3.00436e+01
   2.51000e+03,    4.28963e+00,    5.19895e+00,    3.00607e+01
   2.52000e+03,    4.29203e+00,    5.19535e+00,    3.00778e+01
   2.53000e+03,    4.29440e+00,    5.19178e+00,    3.00948e+01
   2.54000e+03,    4.29677e+00,    5.18825e+00,    3.01118e+01
   2.55000e+03,    4.29911e+00,    5.18476e+00,    3.01286e+01
   2.56000e+03,    4.30144e+00,    5.18131e+00,    3.01455e+01
   2.57000e+03,    4.30376e+00,    5.17789e+00,    3.01622e+01
   2.58000e+03,    4.30606e+00,    5.17450e+00,    3.01790e+01
   2.59000e+03,    4.30835e+00,    5.17116e+00,    3.01956e+01
   2.60000e+03,    4.31062e+00,    5.16784e+00,    3.02122e+01
   2.61000e+03,    4.31288e+00,    5.16456e+00,    3.02288e+01
   2.62000e+03,    4.31513e+00,    5.16132e+00,    3.02453e+01
   2.63000e+03,    4.31736e+00,    5.15810e+00,    3.02617e+01
   2.64000e+03,    4.31957e+00,    5.15492e+00,    3.02781e+01
   2.65000e+03,    4.32178e+00,    5.15177e+00,    3.02944e+01
   2.66000e+03,    4.32397e+00,    5.14866e+00,    3.03107e+01
   2.67000e+03,    4.32614e+00,    5.14557e+00,    3.03270e+01
   2.68000e+03,    4.32830e+00,    5.14252e+00,    3.03431e+01
   2.69000e+03,    4.33045e+00,    5.13950e+00,    3.03593e+01
   2.70000e+03,    4.33259e+00,    5.13650e+00,    3.03753e+01
   2.71000e+03,    4.33471e+00,    5.13354e+00,    3.03914e+01
   2.72000e+03,    4.33683e+00,    5.13061e+00,    3.04073e+01
   2.73000e+03,    4.33892e+00,    5.12770e+00,    3.04232e+01
   2.74000e+03,    4.34101e+00,    5.12483e+00,    3.04391e+01
   2.75000e+03,    4.34308e+00,    5.12198e+00,    3.04549e+01
   2.76000e+03,    4.34515e+00,    5.11916e+00,    3.04707e+01
   2.77000e+03,    4.34720e+00,    5.11637e+00,    3.04864e+01
   2.78000e+03,    4.34923e+00,    5.11361e+00,    3.05021e+01
   2.79000e+03,    4.35126e+00,    5.11087e+00,    3.05177e+01
   2.80000e+03,    4.35327e+00,    5.10817e+00,    3.05333e+01
   2.81000e+03,    4.35528e+00,    5.10548e+00,    3.05488e+01
   2.82000e+03,    4.35727e+00,    5.10283e+00,    3.05643e+01
   2.83000e+03,    4.35925e+00,    5.10020e+00,    3.05797e+01
   2.84000e+03,    4.36122e+00,    5.09759e+00,    3.05951e+01
   2.85000e+03,    4.36318e+00,    5.09501e+00,    3.06104e+01
   2.86000e+03,    4.36512e+00,    5.09245e+00,    3.06257e+01
   2.87000e+03,    4.36706e+00,    5.08992e+00,    3.06409e+01
   2.88000e+03,    4.36899e+00,    5.08742e+00,    3.06561e+01
   2.89000e+03,    4.37090e+00,    5.08493e+00,    3.06713e+01
   2.90000e+03,    4.37281e+00,    5.08247e+00,    3.06864e+01
   2.91000e+03,    4.37470e+00,    5.08004e+00,    3.07014e+01
   2.92000e+03,    4.37659e+00,    5.07763e+00,    3.07165e+01
   2.93000e+03,    4.37846e+00,    5.07524e+00,    3.07314e+01
   2.94000e+03,    4.38033e+00,    5.07287e+00,    3.07463e+01
   2.95000e+03,    4.38218e+00,    5.07053e+00,    3.07612e+01
   2.96000e+03,    4.38403e+00,    5.06820e+00,    3.07760e+01
   2.97000e+03,    4.38586e+00,    5.06590e+00,    3.07908e+01
   2.98000e+03,    4.38769e+00,    5.06362e+00,    3.08056e+01
   2.99000e+03,    4.38950e+00,    5.06137e+00,    3.08203e+01
   3.00000e+03,    4.39131e+00,    5.05913e+00,    3.08349e+01
   3.01000e+03,    4.39311e+00,    5.05691e+00,    3.08496e+01
   3.02000e+03,    4.39490e+00,    5.05472e+00,    3.08641e+01
   3.03000e+03,    4.39667e+00,    5.05254e+00,    3.08787e+01
   3.04000e+03,    4.39845e+00,    5.05039e+00,    3.08932e+01
   3.05000e+03,    4.40021e+00,    5.04826e+00,    3.09076e+01
   3.06000e+03,    4.40196e+00,    5.04614e+00,    3.09220e+01
   3.07000e+03,    4.40370e+00,    5.04405e+00,    3.09364e+01
   3.08000e+03,    4.40544e+00,    5.04197e+00,    3.09507e+01
   3.09000e+03,    4.40717e+00,    5.03991e+00,    3.09650e+01
   3.10000e+03,    4.40888e+00,    5.03787e+00,    3.09792e+01
   3.11000e+03,    4.41059e+00,    5.03585e+00,    3.09934e+01
   3.12000e+03,    4.41230e+00,    5.03385e+00,    3.10076e+01
   3.13000e+03,    4.41399e+00,    5.03187e+00,    3.10217e+01
   3.14000e+03,    4.41568e+00,    5.02990e+00,    3.10358e+01
   3.15000e+03,    4.41735e+00,    5.02796e+00,    3.10498e+01
   3.16000e+03,    4.41902e+00,    5.02603e+00,    3.10638e+01
   3.17000e+03,    4.42068e+00,    5.02412e+00,    3.10778e+01
   3.18000e+03,    4.42234e+00,    5.02222e+00,    3.10917e+01
   3.19000e+03,    4.42398e+00,    5.02034e+00,    3.11056e+01
   3.20000e+03,    4.42562e+00,    5.01848e+00,    3.11195e+01
   3.21000e+03,    4.42725e+00,    5.01664e+00,    3.11333e+01
   3.22000e+03,    4.42888e+00,    5.01481e+00,    3.11470e+01
   3.23000e+03,    4.43049e+00,    5.01300e+00,    3.11608e+01
   3.24000e+03,    4.43210e+00,    5.01120e+00,    3.11745e+01
   3.25000e+03,    4.43370e+00,    5.00942e+00,    3.11881e+01
   3.26000e+03,    4.43530e+00,    5.00766e+00,    3.12018e+01
   3.27000e+03,    4.43689e+00,    5.00591e+00,    3.12154e+01
   3.28000e+03,    4.43847e+00,    5.00418e+00,    3.12289e+01
   3.29000e+03,    4.44004e+00,    5.00246e+00,    3.12424e+01
   3.30000e+03,    4.44161e+00,    5.00076e+00,    3.12559e+01
   3.31000e+03,    4.44316e+00,    4.99907e+00,    3.12693e+01
   3.32000e+03,    4.44472e+00,    4.99740e+00,    3.12827e+01
   3.33000e+03,    4.44626e+00,    4.99574e+00,    3.12961e+01
   3.34000e+03,    4.44780e+00,    4.99410e+00,    3.13094e+01
   3.35000e+03,    4.44933e+00,    4.99247e+00,    3.13227e+01
   3.36000e+03,    4.45086e+00,    4.99086e+00,    3.13360e+01
   3.37000e+03,    4.45238e+00,    4.98926e+00,    3.13492e+01
   3.38000e+03,    4.45389e+00,    4.98767e+00,    3.13624e+01
   3.39000e+03,    4.45540e+00,    4.98610e+00,    3.13756e+01
   3.40000e+03,    4.45690e+00,    4.98454e+00,    3.13887e+01
   3.41000e+03,    4.45839e+00,    4.98300e+00,    3.14018e+01
   3.42000e+03,    4.45988e+00,    4.98146e+00,    3.14149e+01
   3.43000e+03,    4.46136e+00,    4.97995e+00,    3.14279e+01
   3.44000e+03,    4.46283e+00,    4.97844e+00,    3.14409e+01
   3.45000e+03,    4.46430e+00,    4.97695e+00,    3.14538e+01
   3.46000e+03,    4.46576e+00,    4.97547e+00,    3.14668e+01
   3.47000e+03,    4.46722e+00,    4.97400e+00,    3.14797e+01
   3.48000e+03,    4.46867e+00,    4.97255e+00,    3.14925e+01
   3.49000e+03,    4.47011e+00,    4.97111e+00,    3.15053e+01
   3.50000e+03,    4.47155e+00,    4.96968e+00,    3.15181e+01
   3.51000e+03,    4.47298e+00,    4.96826e+00,    3.15309e+01
   3.52000e+03,    4.47441e+00,    4.96685e+00,    3.15436e+01
   3.53000e+03,    4.47583e+00,    4.96546e+00,    3.15563e+01
   3.54000e+03,    4.47724e+00,    4.96408e+00,    3.15690e+01
   3.55000e+03,    4.47865e+00,    4.96271e+00,    3.15816e+01
   3.56000e+03,    4.48005e+00,    4.96135e+00,    3.15942e+01
   3.57000e+03,    4.48145e+00,    4.96001e+00,    3.16068e+01
   3.58000e+03,    4.48284e+00,    4.95867e+00,    3.16193e+01
   3.59000e+03,    4.48423e+00,    4.95735e+00,    3.16318e+01
   3.60000e+03,    4.48561e+00,    4.95604e+00,    3.16443e+01
   3.61000e+03,    4.48698e+00,    4.95473e+00,    3.16567e+01
   3.62000e+03,    4.48835e+00,    4.95344e+00,    3.16692e+01
   3.63000e+03,    4.48971e+00,    4.95216e+00,    3.16815e+01
   3.64000e+03,    4.49107e+00,    4.95090e+00,    3.16939e+01
   3.65000e+03,    4.49243e+00,    4.94964e+00,    3.17062e+01
   3.66000e+03,    4.49377e+00,    4.94839e+00,    3.17185e+01
   3.67000e+03,    4.49511e+00,    4.94715e+00,    3.17308e+01
   3.68000e+03,    4.49645e+00,    4.94593e+00,    3.17430e+01
   3.69000e+03,    4.49778e+00,    4.94471e+00,    3.17552e+01
   3.70000e+03,    4.49911e+00,    4.94350e+00,    3.17674e+01
   3.71000e+03,    4.50043e+00,    4.94231e+00,    3.17795e+01
   3.72000e+03,    4.50174e+00,    4.94112e+00,    3.17916e+01
   3.73000e+03,    4.50305e+00,    4.93995e+00,    3.18037e+01
   3.74000e+03,    4.50436e+00,    4.93878e+00,    3.18158e+01
   3.75000e+03,    4.50565e+00,    4.93762e+00,    3.18278e+01
   3.76000e+03,    4.50695e+00,    4.93648e+00,    3.18398e+01
   3.77000e+03,    4.50824e+00,    4.93534e+00,    3.18518e+01
   3.78000e+03,    4.50952e+00,    4.93421e+00,    3.18637e+01
   3.79000e+03,    4.51080e+00,    4.93309e+00,    3.18756e+01
   3.80000e+03,    4.51207e+00,    4.93198e+00,    3.18875e+01
   3.81000e+03,    4.51334e+00,    4.93088e+00,    3.18994e+01
   3.82000e+03,    4.51460e+00,    4.92979e+00,    3.19112e+01
   3.83000e+03,    4.51586e+00,    4.92871e+00,    3.19230e+01
   3.84000e+03,    4.51711e+00,    4.92763e+00,    3.19348e+01
   3.85000e+03,    4.51836e+00,    4.92657e+00,    3.19466e+01
   3.86000e+03,    4.51960e+00,    4.92551e+00,    3.19583e+01
   3.87000e+03,    4.52083e+00,    4.92447e+00,    3.19700e+01
   3.88000e+03,    4.52206e+00,    4.92343e+00,    3.19816e+01
   3.89000e+03,    4.52329e+00,    4.92240e+00,    3.19933e+01
   3.90000e+03,    4.52451e+00,    4.92138e+00,    3.20049e+01
   3.91000e+03,    4.52573e+00,    4.92036e+00,    3.20165e+01
   3.92000e+03,    4.52694e+00,    4.91936e+00,    3.20281e+01
   3.93000e+03,    4.52814e+00,    4.91836e+00,    3.20396e+01
   3.94000e+03,    4.52934e+00,    4.91737e+00,    3.20511e+01
   3.95000e+03,    4.53054e+00,    4.91639e+00,    3.20626e+01
   3.96000e+03,    4.53173e+00,    4.91542e+00,    3.20740e+01
   3.97000e+03,    4.53292e+00,    4.91445e+00,    3.20855e+01
   3.98000e+03,    4.53410e+00,    4.91350e+00,    3.20969e+01
   3.99000e+03,    4.53527e+00,    4.91255e+00,    3.21082e+01
   4.00000e+03,    4.53644e+00,    4.91160e+00,    3.21196e+01
   4.01000e+03,    4.53761e+00,    4.91067e+00,    3.21309e+01
   4.02000e+03,    4.53876e+00,    4.90974e+00,    3.21422e+01
   4.03000e+03,    4.53992e+00,    4.90882e+00,    3.21535e+01
   4.04000e+03,    4.54107e+00,    4.90791e+00,    3.21648e+01
   4.05000e+03,    4.54221e+00,    4.90701e+00,    3.21760e+01
   4.06000e+03,    4.54335e+00,    4.90611e+00,    3.21872e+01
   4.07000e+03,    4.54449e+00,    4.90522e+00,    3.21984e+01
   4.08000e+03,    4.54561e+00,    4.90434e+00,    3.22095e+01
   4.09000e+03,    4.54674e+00,    4.90346e+00,    3.22207e+01
   4.10000e+03,    4.54786e+00,    4.90259e+00,    3.22318e+01
   4.11000e+03,    4.54897e+00,    4.90173e+00,    3.22428e+01
   4.12000e+03,    4.55008e+00,    4.90088e+00,    3.22539e+01
   4.13000e+03,    4.55118e+00,    4.90003e+00,    3.22649e+01
   4.14000e+03,    4.55228e+00,    4.89919e+00,    3.22759e+01
   4.15000e+03,    4.55337e+00,    4.89835e+00,    3.22869e+01
   4.16000e+03,    4.55446e+00,    4.89753e+00,    3.22979e+01
   4.17000e+03,    4.55554e+00,    4.89670e+00,    3.23088e+01
   4.18000e+03,    4.55662e+00,    4.89589e+00,    3.23197e+01
   4.19000e+03,    4.55769e+00,    4.89508e+00,    3.23306e+01
   4.20000e+03,    4.55876e+00,    4.89428e+00,    3.23415e+01
   4.21000e+03,    4.55982e+00,    4.89348e+00,    3.23523e+01
   4.22000e+03,    4.56087e+00,    4.89269e+00,    3.23631e+01
   4.23000e+03,    4.56192e+00,    4.89191e+00,    3.23739e+01
   4.24000e+03,    4.56297e+00,    4.89113e+00,    3.23847e+01
   4.25000e+03,    4.56401e+00,    4.89036e+00,    3.23955e+01
   4.26000e+03,    4.56504e+00,    4.88960e+00,    3.24062e+01
   4.27000e+03,    4.56607e+00,    4.88884e+00,    3.24169e+01
   4.28000e+03,    4.56709e+00,    4.88809e+00,    3.24276e+01
   4.29000e+03,    4.56811e+00,    4.88734e+00,    3.24382e+01
   4.30000e+03,    4.56913e+00,    4.88660e+00,    3.24489e+01
   4.31000e+03,    4.57013e+00,    4.88586e+00,    3.24595e+01
   4.32000e+03,    4.57114e+00,    4.88513e+00,    3.24701e+01
   4.33000e+03,    4.57213e+00,    4.88441e+00,    3.24807e+01
   4.34000e+03,    4.57312e+00,    4.88369e+00,    3.24912e+01
   4.35000e+03,    4.57411e+00,    4.88298e+00,    3.25017e+01
   4.36000e+03,    4.57509e+00,    4.88227e+00,    3.25122e+01
   4.37000e+03,    4.57606e+00,    4.88157e+00,    3.25227e+01
   4.38000e+03,    4.57703e+00,    4.88087e+00,    3.25332e+01
   4.39000e+03,    4.57800e+00,    4.88018e+00,    3.25436e+01
   4.40000e+03,    4.57895e+00,    4.87949e+00,    3.25540e+01
   4.41000e+03,    4.57991e+00,    4.87881e+00,    3.25644e+01
   4.42000e+03,    4.58085e+00,    4.87814e+00,    3.25748e+01
   4.43000e+03,    4.58179e+00,    4.87747e+00,    3.25852e+01
   4.44000e+03,    4.58273e+00,    4.87680e+00,    3.25955e+01
   4.45000e+03,    4.58366e+00,    4.87614e+00,    3.26058e+01
   4.46000e+03,    4.58458e+00,    4.87549e+00,    3.26161e+01
   4.47000e+03,    4.58550e+00,    4.87484e+00,    3.26264e+01
   4.48000e+03,    4.58641e+00,    4.87420e+00,    3.26366e+01
   4.49000e+03,    4.58732e+00,    4.87356e+00,    3.26468e+01
   4.50000e+03,    4.58822e+00,    4.87292e+00,    3.26570e+01
   4.51000e+03,    4.58912e+00,    4.87229e+00,    3.26672e+01
   4.52000e+03,    4.59000e+00,    4.87166e+00,    3.26774e+01
   4.53000e+03,    4.59089e+00,    4.87104e+00,    3.26875e+01
   4.54000e+03,    4.59177e+00,    4.87043e+00,    3.26977e+01
   4.55000e+03,    4.59264e+00,    4.86982e+00,    3.27078e+01
   4.56000e+03,    4.59350e+00,    4.86921e+00,    3.27178e+01
   4.57000e+03,    4.59436e+00,    4.86861e+00,    3.27279e+01
   4.58000e+03,    4.59522e+00,    4.86801e+00,    3.27380e+01
   4.59000e+03,    4.59606e+00,    4.86742e+00,    3.27480e+01
   4.60000e+03,    4.59691e+00,    4.86683e+00,    3.27580e+01
   4.61000e+03,    4.59774e+00,    4.86624e+00,    3.27680e+01
   4.62000e+03,    4.59857e+00,    4.86566e+00,    3.27779e+01
   4.63000e+03,    4.59939e+00,    4.86509e+00,    3.27879e+01
   4.64000e+03,    4.60021e+00,    4.86451e+00,    3.27978e+01
   4.65000e+03,    4.60102e+00,    4.86395e+00,    3.28077e+01
   4.66000e+03,    4.60183e+00,    4.86338e+00,    3.28176e+01
   4.67000e+03,    4.60263e+00,    4.86282e+00,    3.28274e+01
   4.68000e+03,    4.60342e+00,    4.86227e+00,    3.28373e+01
   4.69000e+03,    4.60421e+00,    4.86172e+00,    3.28471e+01
   4.70000e+03,    4.60499e+00,    4.86117e+00,    3.28569e+01
   4.71000e+03,    4.60576e+00,    4.86063e+00,    3.28667e+01
   4.72000e+03,    4.60653e+00,    4.86009e+00,    3.28765e+01
   4.73000e+03,    4.60729e+00,    4.85955e+00,    3.28862e+01
   4.74000e+03,    4.60805e+00,    4.85902e+00,    3.28960e+01
   4.75000e+03,    4.60880e+00,    4.85849e+00,    3.29057e+01
   4.76000e+03,    4.60954e+00,    4.85797e+00,    3.29154e+01
   4.77000e+03,    4.61027e+00,    4.85745e+00,    3.29250e+01
   4.78000e+03,    4.61100e+00,    4.85693e+00,    3.29347e+01
   4.79000e+03,    4.61173e+00,    4.85642e+00,    3.29443e+01
   4.80000e+03,    4.61244e+00,    4.85591e+00,    3.29540e+01
   4.81000e+03,    4.61315e+00,    4.85541e+00,    3.29636e+01
   4.82000e+03,    4.61386e+00,    4.85491e+00,    3.29731e+01
   4.83000e+03,    4.61456e+00,    4.85441e+00,    3.29827e+01
   4.84000e+03,    4.61525e+00,    4.85391e+00,    3.29922e+01
   4.85000e+03,    4.61593e+00,    4.85342e+00,    3.30018e+01
   4.86000e+03,    4.61661e+00,    4.85293e+00,    3.30113e+01
   4.87000e+03,    4.61728e+00,    4.85245e+00,    3.30208e+01
   4.88000e+03,    4.61794e+00,    4.85197e+00,    3.30302e+01
   4.89000e+03,    4.61860e+00,    4.85149e+00,    3.30397e+01
   4.90000e+03,    4.61925e+00,    4.85101e+00,    3.30491e+01
   4.91000e+03,    4.61989e+00,    4.85054e+00,    3.30586e+01
   4.92000e+03,    4.62053e+00,    4.85007e+00,    3.30680e+01
   4.93000e+03,    4.62116e+00,    4.84961e+00,    3.30773e+01
   4.94000e+03,    4.62179e+00,    4.84915e+00,    3.30867e+01
   4.95000e+03,    4.62240e+00,    4.84869e+00,    3.30960e+01
   4.96000e+03,    4.62301e+00,    4.84823e+00,    3.31054e+01
   4.97000e+03,    4.62362e+00,    4.84778e+00,    3.31147e+01
   4.98000e+03,    4.62421e+00,    4.84733e+00,    3.31240e+01
   4.99000e+03,    4.62480e+00,    4.84688e+00,    3.31333e+01
   5.00000e+03,    4.62539e+00,    4.84644e+00,    3.31425e+01
   5.01000e+03,    4.62596e+00,    4.84600e+00,    3.31518e+01
   5.02000e+03,    4.62653e+00,    4.84556e+00,    3.31610e+01
   5.03000e+03,    4.62709e+00,    4.84513e+00,    3.31702e+01
   5.04000e+03,    4.62765e+00,    4.84470e+00,    3.31794e+01
   5.05000e+03,    4.62819e+00,    4.84427e+00,    3.31886e+01
   5.06000e+03,    4.62873e+00,    4.84384e+00,    3.31977e+01
   5.07000e+03,    4.62927e+00,    4.84342e+00,    3.32069e+01
   5.08000e+03,    4.62979e+00,    4.84300e+00,    3.32160e+01
   5.09000e+03,    4.63031e+00,    4.84258e+00,    3.32251e+01
   5.10000e+03,    4.63083e+00,    4.84216e+00,    3.32342e+01
   5.11000e+03,    4.63133e+00,    4.84175e+00,    3.32432e+01
   5.12000e+03,    4.63183e+00,    4.84134e+00,    3.32523e+01
   5.13000e+03,    4.63232e+00,    4.84093e+00,    3.32613e+01
   5.14000e+03,    4.63280e+00,    4.84052e+00,    3.32704e+01
   5.15000e+03,    4.63328e+00,    4.84012e+00,    3.32794e+01
   5.16000e+03,    4.63375e+00,    4.83972e+00,    3.32883e+01
   5.17000e+03,    4.63421e+00,    4.83932e+00,    3.32973e+01
   5.18000e+03,    4.63466e+00,    4.83893e+00,    3.33063e+01
   5.19000e+03,    4.63511e+00,    4.83853e+00,    3.33152e+01
   5.20000e+03,    4.63555e+00,    4.83814e+00,    3.33241e+01
   5.21000e+03,    4.63598e+00,    4.83776e+00,    3.33330e+01
   5.22000e+03,    4.63641e+00,    4.83737e+00,    3.33419e+01
   5.23000e+03,    4.63683e+00,    4.83699e+00,    3.33508e+01
   5.24000e+03,    4.63724e+00,    4.83660e+00,    3.33597e+01
   5.25000e+03,    4.63764e+00,    4.83622e+00,    3.33685e+01
   5.26000e+03,    4.63804e+00,    4.83585e+00,    3.33773e+01
   5.27000e+03,    4.63842e+00,    4.83547e+00,    3.33861e+01
   5.28000e+03,    4.63881e+00,    4.83510e+00,    3.33949e+01
   5.29000e+03,    4.63918e+00,    4.83473e+00,    3.34037e+01
   5.30000e+03,    4.63954e+00,    4.83436e+00,    3.34125e+01
   5.31000e+03,    4.63990e+00,    4.83399e+00,    3.34212e+01
   5.32000e+03,    4.64025e+00,    4.83363e+00,    3.34300e+01
   5.33000e+03,    4.64060e+00,    4.83327e+00,    3.34387e+01
   5.34000e+03,    4.64093e+00,    4.83291e+00,    3.34474e+01
   5.35000e+03,    4.64126e+00,    4.83255e+00,    3.34560e+01
   5.36000e+03,    4.64158e+00,    4.83219e+00,    3.34647e+01
   5.37000e+03,    4.64189e+00,    4.83184e+00,    3.34734e+01
   5.38000e+03,    4.64220e+00,    4.83148e+00,    3.34820e+01
   5.39000e+03,    4.64250e+00,    4.83113e+00,    3.34906e+01
   5.40000e+03,    4.64279e+00,    4.83078e+00,    3.34992e+01
   5.41000e+03,    4.64307e+00,    4.83044e+00,    3.35078e+01
   5.42000e+03,    4.64335e+00,    4.83009e+00,    3.35164e+01
   5.43000e+03,    4.64361e+00,    4.82975e+00,    3.35250e+01
   5.44000e+03,    4.64387e+00,    4.82941e+00,    3.35335e+01
   5.45000e+03,    4.64412e+00,    4.82907e+00,    3.35420e+01
   5.46000e+03,    4.64437e+00,    4.82873e+00,    3.35505e+01
   5.47000e+03,    4.64461e+00,    4.82839e+00,    3.35590e+01
   5.48000e+03,    4.64483e+00,    4.82805e+00,    3.35675e+01
   5.49000e+03,    4.64506e+00,    4.82772e+00,    3.35760e+01
   5.50000e+03,    4.64527e+00,    4.82739e+00,    3.35844e+01
   5.51000e+03,    4.64547e+00,    4.82706e+00,    3.35929e+01
   5.52000e+03,    4.64567e+00,    4.82673e+00,    3.36013e+01
   5.53000e+03,    4.64586e+00,    4.82640e+00,    3.36097e+01
   5.54000e+03,    4.64605e+00,    4.82608e+00,    3.36181e+01
   5.55000e+03,    4.64622e+00,    4.82575e+00,    3.36265e+01
   5.56000e+03,    4.64639e+00,    4.82543e+00,    3.36349e+01
   5.57000e+03,    4.64655e+00,    4.82511e+00,    3.36432e+01
   5.58000e+03,    4.64670e+00,    4.82479e+00,    3.36515e+01
   5.59000e+03,    4.64684e+00,    4.82447e+00,    3.36599e+01
   5.60000e+03,    4.64698e+00,    4.82415e+00,    3.36682e+01
   5.61000e+03,    4.64710e+00,    4.82384e+00,    3.36765e+01
   5.62000e+03,    4.64722e+00,    4.82352e+00,    3.36847e+01
   5.63000e+03,    4.64734e+00,    4.82321e+00,    3.36930e+01
   5.64000e+03,    4.64744e+00,    4.82290e+00,    3.37012e+01
   5.65000e+03,    4.64754e+00,    4.82259e+00,    3.37095e+01
   5.66000e+03,    4.64763e+00,    4.82228e+00,    3.37177e+01
   5.67000e+03,    4.64771e+00,    4.82197e+00,    3.37259e+01
   5.68000e+03,    4.64778e+00,    4.82166e+00,    3.37341e+01
   5.69000e+03,    4.64784e+00,    4.82136e+00,    3.37423e+01
   5.70000e+03,    4.64790e+00,    4.82105e+00,    3.37504e+01
   5.71000e+03,    4.64795e+00,    4.82075e+00,    3.37586e+01
   5.72000e+03,    4.64799e+00,    4.82045e+00,    3.37667e+01
   5.73000e+03,    4.64802e+00,    4.82015e+00,    3.37748e+01
   5.74000e+03,    4.64805e+00,    4.81985e+00,    3.37829e+01
   5.75000e+03,    4.64807e+00,    4.81955e+00,    3.37910e+01
   5.76000e+03,    4.64808e+00,    4.81925e+00,    3.37991e+01
   5.77000e+03,    4.64808e+00,    4.81896e+00,    3.38072e+01
   5.78000e+03,    4.64807e+00,    4.81866e+00,    3.38152e+01
   5.79000e+03,    4.64806e+00,    4.81836e+00,    3.38232e+01
   5.80000e+03,    4.64804e+00,    4.81807e+00,    3.38313e+01
   5.81000e+03,    4.64801e+00,    4.81778e+00,    3.38393e+01
   5.82000e+03,    4.64797e+00,    4.81749e+00,    3.38473e+01
   5.83000e+03,    4.64792e+00,    4.81720e+00,    3.38552e+01
   5.84000e+03,    4.64787e+00,    4.81691e+00,    3.38632e+01
   5.85000e+03,    4.64781e+00,    4.81662e+00,    3.38712e+01
   5.86000e+03,    4.64774e+00,    4.81633e+00,    3.38791e+01
   5.87000e+03,    4.64766e+00,    4.81604e+00,    3.38870e+01
   5.88000e+03,    4.64758e+00,    4.81576e+00,    3.38949e+01
   5.89000e+03,    4.64749e+00,    4.81547e+00,    3.39028e+01
   5.90000e+03,    4.64738e+00,    4.81519e+00,    3.39107e+01
   5.91000e+03,    4.64728e+00,    4.81490e+00,    3.39186e+01
   5.92000e+03,    4.64716e+00,    4.81462e+00,    3.39264e+01
   5.93000e+03,    4.64703e+00,    4.81434e+00,    3.39343e+01
   5.94000e+03,    4.64690e+00,    4.81405e+00,    3.39421e+01
   5.95000e+03,    4.64676e+00,    4.81377e+00,    3.39499e+01
   5.96000e+03,    4.64661e+00,    4.81349e+00,    3.39577e+01
   5.97000e+03,    4.64646e+00,    4.81321e+00,    3.39655e+01
   5.98000e+03,    4.64629e+00,    4.81293e+00,    3.39733e+01
   5.99000e+03,    4.64612e+00,    4.81266e+00,    3.39811e+01
   6.00000e+03,    4.64594e+00,    4.81238e+00,    3.39888e+01
   6.01000e+03,    4.64575e+00,    4.81210e+00,    3.39965e+01
   6.02000e+03,    4.64556e+00,    4.81182e+00,    3.40043e+01
   6.03000e+03,    4.64536e+00,    4.81155e+00,    3.40120e+01
   6.04000e+03,    4.64514e+00,    4.81127e+00,    3.40197e+01
   6.05000e+03,    4.64492e+00,    4.81100e+00,    3.40274e+01
   6.06000e+03,    4.64470e+00,    4.81072e+00,    3.40350e+01
   6.07000e+03,    4.64446e+00,    4.81045e+00,    3.40427e+01
   6.08000e+03,    4.64422e+00,    4.81018e+00,    3.40503e+01
   6.09000e+03,    4.64397e+00,    4.80990e+00,    3.40580e+01
   6.10000e+03,    4.64371e+00,    4.80963e+00,    3.40656e+01
   6.11000e+03,    4.64345e+00,    4.80936e+00,    3.40732e+01
   6.12000e+03,    4.64317e+00,    4.80909e+00,    3.40808e+01
   6.13000e+03,    4.64289e+00,    4.80882e+00,    3.40884e+01
   6.14000e+03,    4.64260e+00,    4.80855e+00,    3.40959e+01
   6.15000e+03,    4.64230e+00,    4.80828e+00,    3.41035e+01
   6.16000e+03,    4.64200e+00,    4.80801e+00,    3.41110e+01
   6.17000e+03,    4.64169e+00,    4.80774e+00,    3.41186e+01
   6.18000e+03,    4.64137e+00,    4.80747e+00,    3.41261e+01
   6.19000e+03,    4.64104e+00,    4.80720e+00,    3.41336e+01
   6.20000e+03,    4.64070e+00,    4.80693e+00,    3.41411e+01
   6.21000e+03,    4.64036e+00,    4.80666e+00,    3.41486e+01
   6.22000e+03,    4.64001e+00,    4.80640e+00,    3.41560e+01
   6.23000e+03,    4.63965e+00,    4.80613e+00,    3.41635e+01
   6.24000e+03,    4.63928e+00,    4.80586e+00,    3.41709e+01
   6.25000e+03,    4.63891e+00,    4.80560e+00,    3.41783e+01
   6.26000e+03,    4.63853e+00,    4.80533e+00,    3.41858e+01
   6.27000e+03,    4.63814e+00,    4.80506e+00,    3.41932e+01
   6.28000e+03,    4.63774e+00,    4.80480e+00,    3.42006e+01
   6.29000e+03,    4.63733e+00,    4.80453e+00,    3.42079e+01
   6.30000e+03,    4.63692e+00,    4.80426e+00,    3.42153e+01
   6.31000e+03,    4.63650e+00,    4.80400e+00,    3.42226e+01
   6.32000e+03,    4.63607e+00,    4.80373e+00,    3.42300e+01
   6.33000e+03,    4.63564e+00,    4.80347e+00,    3.42373e+01
   6.34000e+03,    4.63520e+00,    4.80320e+00,    3.42446e+01
   6.35000e+03,    4.63475e+00,    4.80294e+00,    3.42519e+01
   6.36000e+03,    4.63429e+00,    4.80267e+00,    3.42592e+01
   6.37000e+03,    4.63382e+00,    4.80241e+00,    3.42665e+01
   6.38000e+03,    4.63335e+00,    4.80214e+00,    3.42738e+01
   6.39000e+03,    4.63287e+00,    4.80188e+00,    3.42810e+01
   6.40000e+03,    4.63238e+00,    4.80162e+00,    3.42883e+01
   6.41000e+03,    4.63189e+00,    4.80135e+00,    3.42955e+01
   6.42000e+03,    4.63138e+00,    4.80109e+00,    3.43027e+01
   6.43000e+03,    4.63087e+00,    4.80082e+00,    3.43099e+01
   6.44000e+03,    4.63036e+00,    4.80056e+00,    3.43171e+01
   6.45000e+03,    4.62983e+00,    4.80029e+00,    3.43243e+01
   6.46000e+03,    4.62930e+00,    4.80003e+00,    3.43315e+01
   6.47000e+03,    4.62876e+00,    4.79977e+00,    3.43387e+01
   6.48000e+03,    4.62821e+00,    4.79950e+00,    3.43458e+01
   6.49000e+03,    4.62766e+00,    4.79924e+00,    3.43529e+01
   6.50000e+03,    4.62709e+00,    4.79897e+00,    3.43601e+01
   6.51000e+03,    4.62653e+00,    4.79871e+00,    3.43672e+01
   6.52000e+03,    4.62595e+00,    4.79844e+00,    3.43743e+01
   6.53000e+03,    4.62536e+00,    4.79818e+00,    3.43814e+01
   6.54000e+03,    4.62477e+00,    4.79791e+00,    3.43884e+01
   6.55000e+03,    4.62418e+00,    4.79765e+00,    3.43955e+01
   6.56000e+03,    4.62357e+00,    4.79738e+00,    3.44026e+01
   6.57000e+03,    4.62296e+00,    4.79712e+00,    3.44096e+01
   6.58000e+03,    4.62234e+00,    4.79685e+00,    3.44166e+01
   6.59000e+03,    4.62171e+00,    4.79659e+00,    3.44237e+01
   6.60000e+03,    4.62108e+00,    4.79632e+00,    3.44307e+01
   6.61000e+03,    4.62043e+00,    4.79606e+00,    3.44377e+01
   6.62000e+03,    4.61979e+00,    4.79579e+00,    3.44446e+01
   6.63000e+03,    4.61913e+00,    4.79553e+00,    3.44516e+01
   6.64000e+03,    4.61847e+00,    4.79526e+00,    3.44586e+01
   6.65000e+03,    4.61780e+00,    4.79499e+00,    3.44655e+01
   6.66000e+03,    4.61712e+00,    4.79473e+00,    3.44725e+01
   6.67000e+03,    4.61644e+00,    4.79446e+00,    3.44794e+01
   6.68000e+03,    4.61575e+00,    4.79419e+00,    3.44863e+01
   6.69000e+03,    4.61505e+00,    4.79393e+00,    3.44932e+01
   6.70000e+03,    4.61434e+00,    4.79366e+00,    3.45001e+01
   6.71000e+03,    4.61363e+00,    4.79339e+00,    3.45070e+01
   6.72000e+03,    4.61291e+00,    4.79312e+00,    3.45139e+01
   6.73000e+03,    4.61219e+00,    4.79285e+00,    3.45207e+01
   6.74000e+03,    4.61146e+00,    4.79259e+00,    3.45276e+01
   6.75000e+03,    4.61072e+00,    4.79232e+00,    3.45344e+01
   6.76000e+03,    4.60997e+00,    4.79205e+00,    3.45412e+01
   6.77000e+03,    4.60922e+00,    4.79178e+00,    3.45480e+01
   6.78000e+03,    4.60846e+00,    4.79151e+00,    3.45548e+01
   6.79000e+03,    4.60769e+00,    4.79124e+00,    3.45616e+01
   6.80000e+03,    4.60692e+00,    4.79097e+00,    3.45684e+01
   6.81000e+03,    4.60614e+00,    4.79070e+00,    3.45752e+01
   6.82000e+03,    4.60535e+00,    4.79043e+00,    3.45819e+01
   6.83000e+03,    4.60456e+00,    4.79015e+00,    3.45887e+01
   6.84000e+03,    4.60376e+00,    4.78988e+00,    3.45954e+01
   6.85000e+03,    4.60295e+00,    4.78961e+00,    3.46022e+01
   6.86000e+03,    4.60214e+00,    4.78934e+00,    3.46089e+01
   6.87000e+03,    4.60132e+00,    4.78906e+00,    3.46156e+01
   6.88000e+03,    4.60050e+00,    4.78879e+00,    3.46223e+01
   6.89000e+03,    4.59966e+00,    4.78852e+00,    3.46289e+01
   6.90000e+03,    4.59882e+00,    4.78824e+00,    3.46356e+01
   6.91000e+03,    4.59798e+00,    4.78797e+00,    3.46423e+01
   6.92000e+03,    4.59713e+00,    4.78769e+00,    3.46489e+01
   6.93000e+03,    4.59627e+00,    4.78742e+00,    3.46556e+01
   6.94000e+03,    4.59540e+00,    4.78714e+00,    3.46622e+01
   6.95000e+03,    4.59453e+00,    4.78686e+00,    3.46688e+01
   6.96000e+03,    4.59365e+00,    4.78659e+00,    3.46754e+01
   6.97000e+03,    4.59277e+00,    4.78631e+00,    3.46820e+01
   6.98000e+03,    4.59188e+00,    4.78603e+00,    3.46886e+01
   6.99000e+03,    4.59098e+00,    4.78575e+00,    3.46952e+01
   7.00000e+03,    4.59008e+00,    4.78547e+00,    3.47017e+01
   7.01000e+03,    4.58917e+00,    4.78520e+00,    3.47083e+01
   7.02000e+03,    4.58825e+00,    4.78492e+00,    3.47148e+01
   7.03000e+03,    4.58733e+00,    4.78464e+00,    3.47213e+01
   7.04000e+03,    4.58640e+00,    4.78435e+00,    3.47279e+01
   7.05000e+03,    4.58547e+00,    4.78407e+00,    3.47344e+01
   7.06000e+03,    4.58453e+00,    4.78379e+00,    3.47409e+01
   7.07000e+03,    4.58358e+00,    4.78351e+00,    3.47474e+01
   7.08000e+03,    4.58263e+00,    4.78323e+00,    3.47538e+01
   7.09000e+03,    4.58167e+00,    4.78294e+00,    3.47603e+01
   7.10000e+03,    4.58070e+00,    4.78266e+00,    3.47668e+01
   7.11000e+03,    4.57973e+00,    4.78237e+00,    3.47732e+01
   7.12000e+03,    4.57876e+00,    4.78209e+00,    3.47796e+01
   7.13000e+03,    4.57777e+00,    4.78180e+00,    3.47861e+01
   7.14000e+03,    4.57679e+00,    4.78152e+00,    3.47925e+01
   7.15000e+03,    4.57579e+00,    4.78123e+00,    3.47989e+01
   7.16000e+03,    4.57479e+00,    4.78094e+00,    3.48053e+01
   7.17000e+03,    4.57378e+00,    4.78065e+00,    3.48117e+01
   7.18000e+03,    4.57277e+00,    4.78036e+00,    3.48180e+01
   7.19000e+03,    4.57175e+00,    4.78007e+00,    3.48244e+01
   7.20000e+03,    4.57073e+00,    4.77978e+00,    3.48308e+01
   7.21000e+03,    4.56970e+00,    4.77949e+00,    3.48371e+01
   7.22000e+03,    4.56867e+00,    4.77920e+00,    3.48434e+01
   7.23000e+03,    4.56762e+00,    4.77891e+00,    3.48498e+01
   7.24000e+03,    4.56658e+00,    4.77862e+00,    3.48561e+01
   7.25000e+03,    4.56553e+00,    4.77832e+00,    3.48624e+01
   7.26000e+03,    4.56447e+00,    4.77803e+00,    3.48687e+01
   7.27000e+03,    4.56340e+00,    4.77774e+00,    3.48750e+01
   7.28000e+03,    4.56234e+00,    4.77744e+00,    3.48812e+01
   7.29000e+03,    4.56126e+00,    4.77715e+00,    3.48875e+01
   7.30000e+03,    4.56018e+00,    4.77685e+00,    3.48937e+01
   7.31000e+03,    4.55910e+00,    4.77655e+00,    3.49000e+01
   7.32000e+03,    4.55800e+00,    4.77625e+00,    3.49062e+01
   7.33000e+03,    4.55691e+00,    4.77596e+00,    3.49124e+01
   7.34000e+03,    4.55581e+00,    4.77566e+00,    3.49186e+01
   7.35000e+03,    4.55470e+00,    4.77536e+00,    3.49248e+01
   7.36000e+03,    4.55359e+00,    4.77506e+00,    3.49310e+01
   7.37000e+03,    4.55247e+00,    4.77475e+00,    3.49372e+01
   7.38000e+03,    4.55134e+00,    4.77445e+00,    3.49434e+01
   7.39000e+03,    4.55022e+00,    4.77415e+00,    3.49496e+01
   7.40000e+03,    4.54908e+00,    4.77385e+00,    3.49557e+01
   7.41000e+03,    4.54794e+00,    4.77354e+00,    3.49618e+01
   7.42000e+03,    4.54680e+00,    4.77324e+00,    3.49680e+01
   7.43000e+03,    4.54565e+00,    4.77293e+00,    3.49741e+01
   7.44000e+03,    4.54449e+00,    4.77263e+00,    3.49802e+01
   7.45000e+03,    4.54334e+00,    4.77232e+00,    3.49863e+01
   7.46000e+03,    4.54217e+00,    4.77201e+00,    3.49924e+01
   7.47000e+03,    4.54100e+00,    4.77170e+00,    3.49985e+01
   7.48000e+03,    4.53983e+00,    4.77139e+00,    3.50046e+01
   7.49000e+03,    4.53865e+00,    4.77108e+00,    3.50106e+01
   7.50000e+03,    4.53746e+00,    4.77077e+00,    3.50167e+01
   7.51000e+03,    4.53627e+00,    4.77046e+00,    3.50227e+01
   7.52000e+03,    4.53508e+00,    4.77015e+00,    3.50288e+01
   7.53000e+03,    4.53388e+00,    4.76984e+00,    3.50348e+01
   7.54000e+03,    4.53267e+00,    4.76952e+00,    3.50408e+01
   7.55000e+03,    4.53146e+00,    4.76921e+00,    3.50468e+01
   7.56000e+03,    4.53025e+00,    4.76889e+00,    3.50528e+01
   7.57000e+03,    4.52903e+00,    4.76858e+00,    3.50588e+01
   7.58000e+03,    4.52781e+00,    4.76826e+00,    3.50648e+01
   7.59000e+03,    4.52658e+00,    4.76794e+00,    3.50708e+01
   7.60000e+03,    4.52534e+00,    4.76762e+00,    3.50767e+01
   7.61000e+03,    4.52411e+00,    4.76730e+00,    3.50827e+01
   7.62000e+03,    4.52286e+00,    4.76698e+00,    3.50886e+01
   7.63000e+03,    4.52162e+00,    4.76666e+00,    3.50945e+01
   7.64000e+03,    4.52037e+00,    4.76634e+00,    3.51005e+01
   7.65000e+03,    4.51911e+00,    4.76602e+00,    3.51064e+01
   7.66000e+03,    4.51785e+00,    4.76570e+00,    3.51123e+01
   7.67000e+03,    4.51658e+00,    4.76537e+00,    3.51182e+01
   7.68000e+03,    4.51531e+00,    4.76505e+00,    3.51240e+01
   7.69000e+03,    4.51404e+00,    4.76472e+00,    3.51299e+01
   7.70000e+03,    4.51276e+00,    4.76440e+00,    3.51358e+01
   7.71000e+03,    4.51148e+00,    4.76407e+00,    3.51416e+01
   7.72000e+03,    4.51019e+00,    4.76374e+00,    3.51475e+01
   7.73000e+03,    4.50890e+00,    4.76341e+00,    3.51533e+01
   7.74000e+03,    4.50760e+00,    4.76308e+00,    3.51592e+01
   7.75000e+03,    4.50630e+00,    4.76275e+00,    3.51650e+01
   7.76000e+03,    4.50500e+00,    4.76242e+00,    3.51708e+01
   7.77000e+03,    4.50369e+00,    4.76209e+00,    3.51766e+01
   7.78000e+03,    4.50237e+00,    4.76175e+00,    3.51824e+01
   7.79000e+03,    4.50106e+00,    4.76142e+00,    3.51882e+01
   7.80000e+03,    4.49974e+00,    4.76109e+00,    3.51939e+01
   7.81000e+03,    4.49841e+00,    4.76075e+00,    3.51997e+01
   7.82000e+03,    4.49708e+00,    4.76041e+00,    3.52055e+01
   7.83000e+03,    4.49575e+00,    4.76008e+00,    3.52112e+01
   7.84000e+03,    4.49441e+00,    4.75974e+00,    3.52169e+01
   7.85000e+03,    4.49307e+00,    4.75940e+00,    3.52227e+01
   7.86000e+03,    4.49172e+00,    4.75906e+00,    3.52284e+01
   7.87000e+03,    4.49037e+00,    4.75872e+00,    3.52341e+01
   7.88000e+03,    4.48902e+00,    4.75838e+00,    3.52398e+01
   7.89000e+03,    4.48766e+00,    4.75804e+00,    3.52455e+01
   7.90000e+03,    4.48630e+00,    4.75769e+00,    3.52512e+01
   7.91000e+03,    4.48493e+00,    4.75735e+00,    3.52568e+01
   7.92000e+03,    4.48356e+00,    4.75700e+00,    3.52625e+01
   7.93000e+03,    4.48219e+00,    4.75666e+00,    3.52682e+01
   7.94000e+03,    4.48081e+00,    4.75631e+00,    3.52738e+01
   7.95000e+03,    4.47943e+00,    4.75597e+00,    3.52795e+01
   7.96000e+03,    4.47805e+00,    4.75562e+00,    3.52851e+01
   7.97000e+03,    4.47666e+00,    4.75527e+00,    3.52907e+01
   7.98000e+03,    4.47527e+00,    4.75492e+00,    3.52963e+01
   7.99000e+03,    4.47387e+00,    4.75457e+00,    3.53019e+01
   8.00000e+03,    4.47247e+00,    4.75422e+00,    3.53075e+01
   8.01000e+03,    4.47107e+00,    4.75386e+00,    3.53131e+01
   8.02000e+03,    4.46966e+00,    4.75351e+00,    3.53187e+01
   8.03000e+03,    4.46826e+00,    4.75315e+00,    3.53242e+01
   8.04000e+03,    4.46684e+00,    4.75280e+00,    3.53298e+01
   8.05000e+03,    4.46543e+00,    4.75244e+00,    3.53354e+01
   8.06000e+03,    4.46401e+00,    4.75209e+00,    3.53409e+01
   8.07000e+03,    4.46258e+00,    4.75173e+00,    3.53464e+01
   8.08000e+03,    4.46116e+00,    4.75137e+00,    3.53520e+01
   8.09000e+03,    4.45972e+00,    4.75101e+00,    3.53575e+01
   8.10000e+03,    4.45829e+00,    4.75065e+00,    3.53630e+01
   8.11000e+03,    4.45685e+00,    4.75029e+00,    3.53685e+01
   8.12000e+03,    4.45541e+00,    4.74993e+00,    3.53740e+01
   8.13000e+03,    4.45397e+00,    4.74956e+00,    3.53795e+01
   8.14000e+03,    4.45252e+00,    4.74920e+00,    3.53849e+01
   8.15000e+03,    4.45107e+00,    4.74883e+00,    3.53904e+01
   8.16000e+03,    4.44962e+00,    4.74847e+00,    3.53959e+01
   8.17000e+03,    4.44816e+00,    4.74810e+00,    3.54013e+01
   8.18000e+03,    4.44671e+00,    4.74773e+00,    3.54067e+01
   8.19000e+03,    4.44524e+00,    4.74737e+00,    3.54122e+01
   8.20000e+03,    4.44378e+00,    4.74700e+00,    3.54176e+01
   8.21000e+03,    4.44231e+00,    4.74663e+00,    3.54230e+01
   8.22000e+03,    4.44084e+00,    4.74625e+00,    3.54284e+01
   8.23000e+03,    4.43936e+00,    4.74588e+00,    3.54338e+01
   8.24000e+03,    4.43788e+00,    4.74551e+00,    3.54392e+01
   8.25000e+03,    4.43640e+00,    4.74514e+00,    3.54446e+01
   8.26000e+03,    4.43492e+00,    4.74476e+00,    3.54500e+01
   8.27000e+03,    4.43343e+00,    4.74439e+00,    3.54553e+01
   8.28000e+03,    4.43194e+00,    4.74401e+00,    3.54607e+01
   8.29000e+03,    4.43045e+00,    4.74363e+00,    3.54660e+01
   8.30000e+03,    4.42896e+00,    4.74325e+00,    3.54714e+01
   8.31000e+03,    4.42746e+00,    4.74287e+00,    3.54767e+01
   8.32000e+03,    4.42596e+00,    4.74249e+00,    3.54820e+01
   8.33000e+03,    4.42446e+00,    4.74211e+00,    3.54873e+01
   8.34000e+03,    4.42295e+00,    4.74173e+00,    3.54927e+01
   8.35000e+03,    4.42144e+00,    4.74135e+00,    3.54980e+01
   8.36000e+03,    4.41993e+00,    4.74097e+00,    3.55032e+01
   8.37000e+03,    4.41842e+00,    4.74058e+00,    3.55085e+01
   8.38000e+03,    4.41690e+00,    4.74020e+00,    3.55138e+01
   8.39000e+03,    4.41538e+00,    4.73981e+00,    3.55191e+01
   8.40000e+03,    4.41386e+00,    4.73942e+00,    3.55243e+01
   8.41000e+03,    4.41233e+00,    4.73903e+00,    3.55296e+01
   8.42000e+03,    4.41081e+00,    4.73865e+00,    3.55348e+01
   8.43000e+03,    4.40928e+00,    4.73826e+00,    3.55401e+01
   8.44000e+03,    4.40775e+00,    4.73787e+00,    3.55453e+01
   8.45000e+03,    4.40621e+00,    4.73747e+00,    3.55505e+01
   8.46000e+03,    4.40467e+00,    4.73708e+00,    3.55557e+01
   8.47000e+03,    4.40314e+00,    4.73669e+00,    3.55609e+01
   8.48000e+03,    4.40159e+00,    4.73629e+00,    3.55661e+01
   8.49000e+03,    4.40005e+00,    4.73590e+00,    3.55713e+01
   8.50000e+03,    4.39850e+00,    4.73550e+00,    3.55765e+01
   8.51000e+03,    4.39696e+00,    4.73511e+00,    3.55816e+01
   8.52000e+03,    4.39540e+00,    4.73471e+00,    3.55868e+01
   8.53000e+03,    4.39385e+00,    4.73431e+00,    3.55920e+01
   8.54000e+03,    4.39230e+00,    4.73391e+00,    3.55971e+01
   8.55000e+03,    4.39074e+00,    4.73351e+00,    3.56022e+01
   8.56000e+03,    4.38918e+00,    4.73311e+00,    3.56074e+01
   8.57000e+03,    4.38762e+00,    4.73271e+00,    3.56125e+01
   8.58000e+03,    4.38605e+00,    4.73230e+00,    3.56176e+01
   8.59000e+03,    4.38449e+00,    4.73190e+00,    3.56227e+01
   8.60000e+03,    4.38292e+00,    4.73149e+00,    3.56278e+01
   8.61000e+03,    4.38135e+00,    4.73109e+00,    3.56329e+01
   8.62000e+03,    4.37978e+00,    4.73068e+00,    3.56380e+01
   8.63000e+03,    4.37820e+00,    4.73027e+00,    3.56431e+01
   8.64000e+03,    4.37663e+00,    4.72987e+00,    3.56482e+01
   8.65000e+03,    4.37505e+00,    4.72946e+00,    3.56532e+01
   8.66000e+03,    4.37347e+00,    4.72905e+00,    3.56583e+01
   8.67000e+03,    4.37189e+00,    4.72863e+00,    3.56633e+01
   8.68000e+03,    4.37030e+00,    4.72822e+00,    3.56684e+01
   8.69000e+03,    4.36872e+00,    4.72781e+00,    3.56734e+01
   8.70000e+03,    4.36713e+00,    4.72740e+00,    3.56784e+01
   8.71000e+03,    4.36554e+00,    4.72698e+00,    3.56834e+01
   8.72000e+03,    4.36395e+00,    4.72657e+00,    3.56884e+01
   8.73000e+03,    4.36236e+00,    4.72615e+00,    3.56934e+01
   8.74000e+03,    4.36076e+00,    4.72573e+00,    3.56984e+01
   8.75000e+03,    4.35917e+00,    4.72531e+00,    3.57034e+01
   8.76000e+03,    4.35757e+00,    4.72490e+00,    3.57084e+01
   8.77000e+03,    4.35597e+00,    4.72448e+00,    3.57134e+01
   8.78000e+03,    4.35437e+00,    4.72406e+00,    3.57183e+01
   8.79000e+03,    4.35276e+00,    4.72363e+00,    3.57233e+01
   8.80000e+03,    4.35116e+00,    4.72321e+00,    3.57282e+01
   8.81000e+03,    4.34955e+00,    4.72279e+00,    3.57332e+01
   8.82000e+03,    4.34794e+00,    4.72236e+00,    3.57381e+01
   8.83000e+03,    4.34634e+00,    4.72194e+00,    3.57430e+01
   8.84000e+03,    4.34472e+00,    4.72151e+00,    3.57479e+01
   8.85000e+03,    4.34311e+00,    4.72109e+00,    3.57529e+01
   8.86000e+03,    4.34150e+00,    4.72066e+00,    3.57578e+01
   8.87000e+03,    4.33988e+00,    4.72023e+00,    3.57627e+01
   8.88000e+03,    4.33827e+00,    4.71980e+00,    3.57675e+01
   8.89000e+03,    4.33665e+00,    4.71937e+00,    3.57724e+01
   8.90000e+03,    4.33503e+00,    4.71894e+00,    3.57773e+01
   8.91000e+03,    4.33341e+00,    4.71851e+00,    3.57822e+01
   8.92000e+03,    4.33178e+00,    4.71808e+00,    3.57870e+01
   8.93000e+03,    4.33016e+00,    4.71764e+00,    3.57919e+01
   8.94000e+03,    4.32854e+00,    4.71721e+00,    3.57967e+01
   8.95000e+03,    4.32691e+00,    4.71677e+00,    3.58016e+01
   8.96000e+03,    4.32528e+00,    4.71634e+00,    3.58064e+01
   8.97000e+03,    4.32365e+00,    4.71590e+00,    3.58112e+01
   8.98000e+03,    4.32202e+00,    4.71546e+00,    3.58160e+01
   8.99000e+03,    4.32039e+00,    4.71502e+00,    3.58208e+01
   9.00000e+03,    4.31876e+00,    4.71459e+00,    3.58256e+01
   9.01000e+03,    4.31713e+00,    4.71414e+00,    3.58304e+01
   9.02000e+03,    4.31549e+00,    4.71370e+00,    3.58352e+01
   9.03000e+03,    4.31386e+00,    4.71326e+00,    3.58400e+01
   9.04000e+03,    4.31222e+00,    4.71282e+00,    3.58448e+01
   9.05000e+03,    4.31058e+00,    4.71238e+00,    3.58496e+01
   9.06000e+03,    4.30894e+00,    4.71193e+00,    3.58543e+01
   9.07000e+03,    4.30730e+00,    4.71149e+00,    3.58591e+01
   9.08000e+03,    4.30566e+00,    4.71104e+00,    3.58638e+01
   9.09000e+03,    4.30402e+00,    4.71059e+00,    3.58685e+01
   9.10000e+03,    4.30238e+00,    4.71015e+00,    3.58733e+01
   9.11000e+03,    4.30073e+00,    4.70970e+00,    3.58780e+01
   9.12000e+03,    4.29909e+00,    4.70925e+00,    3.58827e+01
   9.13000e+03,    4.29744e+00,    4.70880e+00,    3.58874e+01
   9.14000e+03,    4.29579e+00,    4.70835e+00,    3.58921e+01
   9.15000e+03,    4.29415e+00,    4.70789e+00,    3.58968e+01
   9.16000e+03,    4.29250e+00,    4.70744e+00,    3.59015e+01
   9.17000e+03,    4.29085e+00,    4.70699e+00,    3.59062e+01
   9.18000e+03,    4.28920e+00,    4.70653e+00,    3.59109e+01
   9.19000e+03,    4.28755e+00,    4.70608e+00,    3.59155e+01
   9.20000e+03,    4.28589e+00,    4.70562e+00,    3.59202e+01
   9.21000e+03,    4.28424e+00,    4.70517e+00,    3.59249e+01
   9.22000e+03,    4.28259e+00,    4.70471e+00,    3.59295e+01
   9.23000e+03,    4.28094e+00,    4.70425e+00,    3.59342e+01
   9.24000e+03,    4.27928e+00,    4.70379e+00,    3.59388e+01
   9.25000e+03,    4.27763e+00,    4.70333e+00,    3.59434e+01
   9.26000e+03,    4.27597e+00,    4.70287e+00,    3.59480e+01
   9.27000e+03,    4.27431e+00,    4.70241e+00,    3.59527e+01
   9.28000e+03,    4.27266e+00,    4.70195e+00,    3.59573e+01
   9.29000e+03,    4.27100e+00,    4.70149e+00,    3.59619e+01
   9.30000e+03,    4.26934e+00,    4.70102e+00,    3.59665e+01
   9.31000e+03,    4.26768e+00,    4.70056e+00,    3.59710e+01
   9.32000e+03,    4.26602e+00,    4.70009e+00,    3.59756e+01
   9.33000e+03,    4.26436e+00,    4.69963e+00,    3.59802e+01
   9.34000e+03,    4.26270e+00,    4.69916e+00,    3.59848e+01
   9.35000e+03,    4.26104e+00,    4.69869e+00,    3.59893e+01
   9.36000e+03,    4.25938e+00,    4.69822e+00,    3.59939e+01
   9.37000e+03,    4.25771e+00,    4.69775e+00,    3.59984e+01
   9.38000e+03,    4.25605e+00,    4.69728e+00,    3.60030e+01
   9.39000e+03,    4.25439e+00,    4.69681e+00,    3.60075e+01
   9.40000e+03,    4.25273e+00,    4.69634e+00,    3.60120e+01
   9.41000e+03,    4.25106e+00,    4.69587e+00,    3.60166e+01
   9.42000e+03,    4.24940e+00,    4.69540e+00,    3.60211e+01
   9.43000e+03,    4.24773e+00,    4.69492e+00,    3.60256e+01
   9.44000e+03,    4.24607e+00,    4.69445e+00,    3.60301e+01
   9.45000e+03,    4.24440e+00,    4.69397e+00,    3.60346e+01
   9.46000e+03,    4.24274e+00,    4.69350e+00,    3.60391e+01
   9.47000e+03,    4.24107e+00,    4.69302e+00,    3.60435e+01
   9.48000e+03,    4.23941e+00,    4.69254e+00,    3.60480e+01
   9.49000e+03,    4.23774e+00,    4.69206e+00,    3.60525e+01
   9.50000e+03,    4.23607e+00,    4.69158e+00,    3.60569e+01
   9.51000e+03,    4.23441e+00,    4.69110e+00,    3.60614e+01
   9.52000e+03,    4.23274e+00,    4.69062e+00,    3.60658e+01
   9.53000e+03,    4.23107e+00,    4.69014e+00,    3.60703e+01
   9.54000e+03,    4.22941e+00,    4.68966e+00,    3.60747e+01
   9.55000e+03,    4.22774e+00,    4.68918e+00,    3.60792e+01
   9.56000e+03,    4.22607e+00,    4.68869e+00,    3.60836e+01
   9.57000e+03,    4.22441e+00,    4.68821e+00,    3.60880e+01
   9.58000e+03,    4.22274e+00,    4.68772e+00,    3.60924e+01
   9.59000e+03,    4.22107e+00,    4.68724e+00,    3.60968e+01
   9.60000e+03,    4.21940e+00,    4.68675e+00,    3.61012e+01
   9.61000e+03,    4.21774e+00,    4.68626e+00,    3.61056e+01
   9.62000e+03,    4.21607e+00,    4.68578e+00,    3.61100e+01
   9.63000e+03,    4.21440e+00,    4.68529e+00,    3.61144e+01
   9.64000e+03,    4.21273e+00,    4.68480e+00,    3.61187e+01
   9.65000e+03,    4.21106e+00,    4.68431e+00,    3.61231e+01
   9.66000e+03,    4.20940e+00,    4.68382e+00,    3.61275e+01
   9.67000e+03,    4.20773e+00,    4.68333e+00,    3.61318e+01
   9.68000e+03,    4.20606e+00,    4.68283e+00,    3.61362e+01
   9.69000e+03,    4.20439e+00,    4.68234e+00,    3.61405e+01
   9.70000e+03,    4.20273e+00,    4.68185e+00,    3.61449e+01
   9.71000e+03,    4.20106e+00,    4.68135e+00,    3.61492e+01
   9.72000e+03,    4.19939e+00,    4.68086e+00,    3.61535e+01
   9.73000e+03,    4.19773e+00,    4.68036e+00,    3.61578e+01
   9.74000e+03,    4.19606e+00,    4.67987e+00,    3.61621e+01
   9.75000e+03,    4.19439e+00,    4.67937e+00,    3.61664e+01
   9.76000e+03,    4.19273e+00,    4.67887e+00,    3.61707e+01
   9.77000e+03,    4.19106e+00,    4.67837e+00,    3.61750e+01
   9.78000e+03,    4.18939e+00,    4.67787e+00,    3.61793e+01
   9.79000e+03,    4.18773e+00,    4.67737e+00,    3.61836e+01
   9.80000e+03,    4.18606e+00,    4.67687e+00,    3.61879e+01
   9.81000e+03,    4.18440e+00,    4.67637e+00,    3.61921e+01
   9.82000e+03,    4.18273e+00,    4.67587e+00,    3.61964e+01
   9.83000e+03,    4.18107e+00,    4.67537e+00,    3.62007e+01
   9.84000e+03,    4.17940e+00,    4.67487e+00,    3.62049e+01
   9.85000e+03,    4.17774e+00,    4.67436e+00,    3.62092e+01
   9.86000e+03,    4.17608e+00,    4.67386e+00,    3.62134e+01
   9.87000e+03,    4.17441e+00,    4.67335e+00,    3.62176e+01
   9.88000e+03,    4.17275e+00,    4.67285e+00,    3.62219e+01
   9.89000e+03,    4.17109e+00,    4.67234e+00,    3.62261e+01
   9.90000e+03,    4.16943e+00,    4.67183e+00,    3.62303e+01
   9.91000e+03,    4.16776e+00,    4.67132e+00,    3.62345e+01
   9.92000e+03,    4.16610e+00,    4.67082e+00,    3.62387e+01
   9.93000e+03,    4.16444e+00,    4.67031e+00,    3.62429e+01
   9.94000e+03,    4.16278e+00,    4.66980e+00,    3.62471e+01
   9.95000e+03,    4.16112e+00,    4.66929e+00,    3.62513e+01
   9.96000e+03,    4.15946e+00,    4.66878e+00,    3.62554e+01
   9.97000e+03,    4.15780e+00,    4.66826e+00,    3.62596e+01
   9.98000e+03,    4.15615e+00,    4.66775e+00,    3.62638e+01
   9.99000e+03,    4.15449e+00,    4.66724e+00,    3.62680e+01
   1.00000e+04,    4.15283e+00,    4.66672e+00,    3.62721e+01
